time,seconds_elapsed,rotationRateX,rotationRateY,rotationRateZ,gravityX,gravityY,gravityZ,accelerationX,accelerationY,accelerationZ,quaternionW,quaternionX,quaternionY,quaternionZ,pitch,roll,yaw
24188,0.01366000,0.00000000,0.00000000,0.00000000,-0.00176071,-0.00094860,0.99999780,-0.06122757,-0.03298695,0.00512916,0.00000002,-0.00088035,-0.00047430,0.99999942,0.00176071,-0.00094860,3.14159178
57052,0.04652400,0.03370750,-0.00572894,0.00319755,-0.00364293,-0.00161603,0.99999179,-0.08424770,-0.03012225,-0.01512855,-0.00000044,-0.00182147,-0.00080802,0.99999790,0.00364294,-0.00161604,3.14159059
89740,0.07921200,0.03370750,-0.00639510,0.02171669,-0.00537921,-0.00260070,0.99998226,-0.06566572,-0.03743836,0.01271307,-0.00000211,-0.00268961,-0.00130036,0.99999561,0.00537924,-0.00260074,3.14158987
122424,0.11189601,0.04276723,0.00945942,0.01998469,-0.00713502,-0.00355370,0.99996814,-0.05414428,-0.02964943,0.01638925,-0.00000364,-0.00356753,-0.00177688,0.99999198,0.00713508,-0.00355380,3.14158725
155184,0.14465600,0.05395865,-0.00572894,0.01252374,-0.00898306,-0.00430608,0.99995031,-0.05766734,-0.02377009,0.00200284,-0.00000495,-0.00449157,-0.00215309,0.99998750,0.00898318,-0.00430627,3.14158320
187972,0.17744399,0.05808882,-0.02065084,0.01572129,-0.01086897,-0.00495072,0.99992847,-0.05407243,-0.01873092,-0.01457691,-0.00000694,-0.00543457,-0.00247544,0.99998207,0.01086919,-0.00495103,3.14157962
220728,0.21019999,0.02531394,0.01638744,0.03064318,-0.01274222,-0.00565362,0.99990262,-0.06318552,-0.02388739,-0.01918978,-0.00001007,-0.00637124,-0.00282694,0.99997558,0.01274256,-0.00565411,3.14157676
253524,0.24299600,0.01065850,-0.02358193,0.02291577,-0.01462253,-0.00632047,0.99987316,-0.06130521,-0.02175570,-0.00231457,-0.00001254,-0.00731146,-0.00316043,0.99996833,0.01462305,-0.00632119,3.14157152
286340,0.27581200,0.01998469,-0.05182695,0.03623890,-0.01646974,-0.00705989,0.99983901,-0.05555174,-0.02223699,0.00064927,-0.00001589,-0.00823515,-0.00353022,0.99995965,0.01647049,-0.00706091,3.14156627
319176,0.30864799,0.01718683,0.01851914,0.02238285,-0.01816675,-0.00811909,0.99980182,-0.04311255,-0.02703716,0.00117475,-0.00001654,-0.00908376,-0.00405990,0.99995040,0.01816775,-0.00812052,3.14155197
352056,0.34152798,0.01505513,-0.06754824,0.01625421,-0.01989330,-0.00910371,0.99976072,-0.04504810,-0.02556426,0.00683105,-0.00001696,-0.00994717,-0.00455229,0.99994020,0.01989462,-0.00910563,3.14153599
384848,0.37432000,0.01318989,-0.02278254,0.01798622,-0.02137414,-0.01043982,0.99971685,-0.02574500,-0.02325159,-0.00582039,-0.00001520,-0.01068775,-0.00522044,0.99992923,0.02137577,-0.01044239,3.14151144
417656,0.40712800,0.00919296,0.00199847,0.01612098,-0.02289050,-0.01174088,0.99966859,-0.03497083,-0.03000717,0.00472593,-0.00001362,-0.01144612,-0.00587108,0.99991703,0.02289251,-0.01174423,3.14148545
450432,0.43990402,0.02731240,-0.00506279,0.01678714,-0.02437698,-0.01307115,0.99961709,-0.02616014,-0.02330580,0.01967001,-0.00001179,-0.01218958,-0.00653635,0.99990425,0.02437940,-0.01307541,3.14145684
483216,0.47268800,0.03970291,0.00093262,0.00945942,-0.02583762,-0.01442833,0.99956188,-0.02494363,-0.02316933,0.01313341,-0.00000913,-0.01292016,-0.00721507,0.99989042,0.02584050,-0.01443365,3.14142441
515964,0.50543599,0.03450689,-0.02051761,0.00492956,-0.02757313,-0.01540620,0.99950113,-0.02540538,-0.01437896,-0.00780195,-0.00000927,-0.01378821,-0.00770419,0.99987525,0.02757662,-0.01541267,3.14139866
548764,0.53823604,0.00626187,0.01732006,0.01518836,-0.02908005,-0.01672040,0.99943695,-0.02096878,-0.01843585,-0.01139981,-0.00000736,-0.01454201,-0.00836148,0.99985914,0.02908415,-0.01672826,3.14136409
581540,0.57101202,0.00692802,-0.00013323,0.01199081,-0.03091983,-0.01749747,0.99936828,-0.03402158,-0.01448495,0.01918638,-0.00001047,-0.01546226,-0.00875028,0.99984197,0.03092477,-0.01750674,3.14134287
614332,0.60380401,0.04556508,-0.01652067,0.01279020,-0.03259915,-0.01856634,0.99929609,-0.02941257,-0.01878718,0.01974690,-0.00001058,-0.01630234,-0.00928497,0.99982395,0.03260493,-0.01857728,3.14131093
647136,0.63660802,0.05489127,0.01785299,0.01318989,-0.03441883,-0.01938643,0.99921951,-0.02490734,-0.01137529,-0.00459057,-0.00001336,-0.01721264,-0.00969534,0.99980487,0.03442563,-0.01939914,3.14128541
679948,0.66942000,0.02291577,-0.00599541,0.01465544,-0.03593539,-0.02068016,0.99914016,-0.02021695,-0.01740578,-0.01232374,-0.00001079,-0.01797145,-0.01034250,0.99978504,0.03594313,-0.02069500,3.14124226
712760,0.70223197,0.01598775,0.02637979,0.01425574,-0.03714089,-0.02227279,0.99906148,-0.00851340,-0.01117447,0.00484473,-0.00000384,-0.01857477,-0.01113908,0.99976530,0.03714945,-0.02229002,3.14118623
745544,0.73501596,0.03317458,0.00972588,0.00972588,-0.03888890,-0.02323382,0.99897327,-0.01970485,-0.01094586,0.01591927,-0.00000544,-0.01944938,-0.01162000,0.99974327,0.03889871,-0.02325351,3.14115118
778316,0.76778798,0.04476570,0.01478867,0.00999234,-0.04080198,-0.02380382,0.99888353,-0.01290895,-0.00402821,0.00941724,-0.00001157,-0.02040655,-0.01190547,0.99972076,0.04081332,-0.02382591,3.14112949
811104,0.80057601,0.04796324,0.02584686,-0.00413017,-0.04118303,-0.02575760,0.99881925,-0.00129744,-0.00744552,-0.00370210,0.00000665,-0.02059768,-0.01288247,0.99970474,0.04119469,-0.02578234,3.14104819
843860,0.83333196,0.03144257,0.03330781,-0.00253139,-0.04289110,-0.02679265,0.99872026,-0.02205031,-0.01349056,0.00445354,0.00000666,-0.02145251,-0.01340047,0.99967994,0.04290427,-0.02682055,3.14100384
876640,0.86611194,0.03397396,0.02158346,0.01385605,-0.04470760,-0.02761926,0.99861831,-0.01413029,-0.00656043,0.00797349,0.00000235,-0.02236156,-0.01381435,0.99965457,0.04472250,-0.02765042,3.14096951
909408,0.89888000,0.03810414,0.00972588,0.01345635,-0.04644165,-0.02860057,0.99851112,-0.01361694,-0.00777639,0.00002402,0.00000036,-0.02322948,-0.01430560,0.99962768,0.04645838,-0.02863538,3.14092659
942120,0.93159198,0.02371516,-0.00319755,0.00999234,-0.04843523,-0.02866602,0.99841461,-0.00844953,-0.00014258,-0.00622714,-0.00001393,-0.02422703,-0.01433903,0.99960346,0.04845421,-0.02870365,3.14092493
974960,0.96443195,0.00559571,0.02371516,0.01625421,-0.05043316,-0.02858485,0.99831809,-0.01109027,0.00026453,0.00534403,-0.00003051,-0.02522676,-0.01429921,0.99957933,0.05045459,-0.02862518,3.14093136
1007748,0.99721994,0.03024349,0.01065850,0.01758652,-0.05224629,-0.02941135,0.99820098,-0.01220683,-0.00574490,0.02352750,-0.00003434,-0.02613440,-0.01471319,0.99955015,0.05227010,-0.02945584,3.14089131
1040584,1.03005599,0.05142726,0.00706126,0.02238285,-0.05424193,-0.02940764,0.99809436,-0.00264284,-0.00013337,0.00385874,-0.00005084,-0.02713315,-0.01471221,0.99952335,0.05426858,-0.02945527,3.14089488
1073448,1.06291997,0.03250842,0.03237519,0.00826034,-0.05471945,-0.03134173,0.99800949,-0.00045633,-0.00357038,-0.00875169,-0.00002859,-0.02737291,-0.01567945,0.99950218,0.05474681,-0.03139392,3.14079022
1106400,1.09587203,0.00746095,0.01985145,0.01811945,-0.05669836,-0.03106203,0.99790782,-0.01166102,0.00176515,-0.00376725,-0.00004940,-0.02836325,-0.01554055,0.99947681,0.05672878,-0.03111710,3.14080858
1139248,1.12872004,0.00546248,0.03437366,0.02331547,-0.05854042,-0.03183233,0.99777708,-0.00469200,-0.00210321,0.01735962,-0.00005474,-0.02928562,-0.01592663,0.99944410,0.05857392,-0.03189244,3.14076781
1172156,1.16162800,0.02424809,0.05462480,0.04076876,-0.06052108,-0.03211624,0.99765005,-0.01711563,-0.00304000,0.02163708,-0.00006957,-0.03027722,-0.01606967,0.99941234,0.06055809,-0.03218078,3.14075708
1205048,1.19451999,0.04210107,0.02917764,0.05355895,-0.05855694,-0.03242122,0.99775733,0.00142803,-0.00029362,0.00151020,-0.00005351,-0.02929403,-0.01622128,0.99943914,0.05859046,-0.03248266,3.14074778
1237928,1.22739994,0.02504747,0.08313629,0.04729709,-0.05667405,-0.03181174,0.99788570,0.00393968,0.00129417,-0.00325680,-0.00005093,-0.02835121,-0.01591573,0.99947128,0.05670444,-0.03186836,3.14079070
1270760,1.26023197,0.00599541,0.05489127,0.04063552,-0.05478606,-0.03242967,0.99797134,0.00229583,-0.00126173,0.01032948,-0.00003059,-0.02740644,-0.01622390,0.99949274,0.05481351,-0.03248417,3.14076328
1303624,1.29309595,0.01785299,0.06648239,0.03130934,-0.05292799,-0.03312736,0.99804859,0.00629713,-0.00300545,0.01244944,-0.00000836,-0.02647678,-0.01657199,0.99951200,0.05295275,-0.03317995,3.14073061
1336468,1.32594001,0.02211639,0.05835528,0.01065850,-0.05261444,-0.03509573,0.99799804,0.00012420,-0.00396677,0.00908208,0.00001953,-0.02632074,-0.01755614,0.99949941,0.05263875,-0.03515165,3.14062809
1369320,1.35879194,0.01438897,0.06435069,-0.00199847,-0.05152935,-0.03676599,0.99799432,0.00318950,-0.00522619,0.00322634,0.00005162,-0.02577855,-0.01839089,0.99949846,0.05155219,-0.03682323,3.14053988
1402224,1.39169597,0.02677948,0.12523735,-0.01039204,-0.05346322,-0.03732204,0.99787178,-0.01221061,-0.00418186,0.02654225,0.00004237,-0.02674664,-0.01866983,0.99946775,0.05348874,-0.03738421,3.14050769
1435128,1.42460002,0.04769678,0.08686677,-0.00852680,-0.05536580,-0.03795024,0.99774456,-0.02275920,-0.00794820,0.01202106,0.00003425,-0.02769917,-0.01898488,0.99943599,0.05539412,-0.03801770,3.14047074
1467992,1.45746397,0.04396631,0.08819909,-0.00759418,-0.05733939,-0.03755973,0.99764785,-0.02542428,0.00508903,-0.00375140,0.00001124,-0.02868678,-0.01879060,0.99941177,0.05737086,-0.03763051,3.14049029
1500884,1.49035596,0.00439663,0.08859878,0.00812710,-0.05934550,-0.03744894,0.99753437,-0.04392598,0.00278097,-0.01120627,-0.00000955,-0.02969088,-0.01873631,0.99938335,0.05938041,-0.03752388,3.14049720
1533708,1.52318000,-0.00199847,0.09366157,0.02038438,-0.06135417,-0.03739534,0.99741497,-0.02971028,0.00004183,0.01772171,-0.00003065,-0.03069636,-0.01871071,0.99935350,0.06139274,-0.03747470,3.14050316
1566588,1.55605993,0.02891118,0.06928025,0.02851149,-0.06332799,-0.03772990,0.99727926,-0.02285365,-0.00450643,0.01858992,-0.00004600,-0.03168468,-0.01887925,0.99931955,0.06337041,-0.03781480,3.14048600
1599396,1.58886804,0.03930321,0.04423277,0.01159112,-0.06473726,-0.03629708,0.99724178,-0.01021392,0.01090646,-0.00529838,-0.00008272,-0.03238947,-0.01816375,0.99931011,0.06478258,-0.03638142,3.14057922
1632252,1.62172403,0.01505513,0.09326187,0.01132465,-0.06639796,-0.03515997,0.99717340,-0.02710790,0.02026739,-0.02036679,-0.00011687,-0.03322041,-0.01759631,0.99929313,0.06644686,-0.03524503,3.14065504
1665112,1.65458402,-0.01385605,0.14828636,0.03130934,-0.06841173,-0.03503984,0.99704151,-0.05219374,0.00305742,0.00051707,-0.00013887,-0.03422875,-0.01753765,0.99926004,0.06846522,-0.03512936,3.14066743
1697996,1.68746805,-0.00452986,0.08966463,0.06235222,-0.07041141,-0.03519377,0.99689683,-0.03871945,-0.00386873,0.02629656,-0.00015893,-0.03523025,-0.01761616,0.99922380,0.07046973,-0.03528867,3.14066672
1730892,1.72036399,0.03011026,0.03424043,0.09259572,-0.07233228,-0.03572269,0.99674043,-0.03508960,-0.01017574,0.02010524,-0.00017430,-0.03619253,-0.01788224,0.99918470,0.07239551,-0.03582419,3.14064407
1763832,1.75330400,0.03011026,0.12936753,0.05462480,-0.07050555,-0.03646294,0.99684438,0.00141375,-0.00040229,-0.00245965,-0.00014875,-0.03527790,-0.01825113,0.99921073,0.07056411,-0.03656207,3.14059972
1796732,1.78620395,0.00279786,0.09419449,0.05116080,-0.07245588,-0.03598032,0.99672203,-0.04033709,0.01107798,-0.02162439,-0.00017915,-0.03625443,-0.01801142,0.99918003,0.07251945,-0.03608298,3.14064216
1829588,1.81905994,-0.02677948,0.02611332,0.05795559,-0.07444724,-0.03586775,0.99657945,-0.03541605,0.00242049,-0.01098376,-0.00020421,-0.03725182,-0.01795685,0.99914445,0.07451619,-0.03597533,3.14066028
1862512,1.85198402,-0.01598775,0.16533997,0.05542420,-0.07610986,-0.03699994,0.99641246,-0.01666358,-0.01109576,0.02726912,-0.00020246,-0.03808535,-0.01852431,0.99910268,0.07618355,-0.03711610,3.14058327
1895400,1.88487195,0.01505513,0.03783767,0.05409188,-0.07806506,-0.03738360,0.99624710,-0.03472791,-0.00729414,0.01498342,-0.00021781,-0.03906512,-0.01871788,0.99906129,0.07814457,-0.03750683,3.14056229
1928260,1.91773204,0.01438897,0.05702297,0.03810414,-0.07613234,-0.03696793,0.99641208,0.01363234,0.00303238,-0.00568938,-0.00021087,-0.03809646,-0.01850861,0.99910249,0.07620609,-0.03708404,3.14060091
1961104,1.95057592,-0.01718683,0.12403829,-0.01305666,-0.07806720,-0.03641756,0.99628248,-0.03423749,0.01078280,-0.01703447,-0.00023772,-0.03906559,-0.01823503,0.99907007,0.07814673,-0.03653718,3.14064002
1994040,1.98351202,-0.04196784,0.06714855,0.01025880,-0.08006119,-0.03655886,0.99611911,-0.07618881,-0.00543332,0.00290436,-0.00025419,-0.04006484,-0.01830739,0.99902925,0.08014699,-0.03668484,3.14063048
2026976,2.01644802,-0.03543951,-0.04330015,0.03130934,-0.08198520,-0.03702214,0.99594516,-0.06498745,-0.01546810,-0.00131631,-0.00026560,-0.04102930,-0.01854077,0.99898567,0.08207736,-0.03715574,3.14059853
2059924,2.04939603,-0.05302603,0.01199081,0.05862174,-0.08385015,-0.03771319,0.99576435,-0.04163814,-0.01526532,-0.00260031,-0.00027409,-0.04196435,-0.01888811,0.99894046,0.08394872,-0.03785552,3.14055132
2092836,2.08230805,-0.05502450,-0.03317458,0.05382542,-0.08580065,-0.03805381,0.99558525,-0.04920912,-0.00857704,0.00563544,-0.00029057,-0.04294220,-0.01906044,0.99889564,0.08590627,-0.03820396,3.14053225
2125712,2.11518406,-0.02664625,-0.05649004,0.09006432,-0.08684557,-0.03974214,0.99542875,-0.01325209,-0.01836333,0.02654392,-0.00027240,-0.04346707,-0.01990567,0.99885644,0.08695510,-0.03990346,3.14040184
2158584,2.14805603,0.01492190,0.11431241,0.06861409,-0.08745914,-0.04163968,0.99529743,-0.00604673,-0.01573337,0.01446819,-0.00024268,-0.04377600,-0.02085500,0.99882364,0.08757102,-0.04181204,3.14024639
2191376,2.18084788,0.00799387,0.03144257,0.06981317,-0.08921927,-0.04255759,0.99510240,-0.01795846,-0.00944436,-0.00584459,-0.00024678,-0.04465909,-0.02131593,0.99877481,0.08933806,-0.04274100,3.14017605
2224196,2.21366810,-0.00199847,0.03677182,0.05355895,-0.08746145,-0.04348394,0.99521818,0.01080129,-0.00485590,-0.00840175,-0.00021183,-0.04377848,-0.02177730,0.99880371,0.08757335,-0.04366509,3.14010334
2257036,2.24650788,-0.01838591,0.14921898,-0.01172435,-0.08919879,-0.04448433,0.99502010,-0.02164105,-0.01264457,-0.00600642,-0.00020751,-0.04465040,-0.02227918,0.99875431,0.08931750,-0.04467722,3.14001131
2289948,2.27941989,-0.01452220,0.10405360,0.01092496,-0.09115027,-0.04491856,0.99482336,-0.07510951,-0.01733730,0.01518643,-0.00022014,-0.04562927,-0.02249846,0.99870491,0.09127696,-0.04512165,3.13997244
2322860,2.31233191,-0.01652067,-0.03157581,0.07181164,-0.09306969,-0.04538667,0.99462442,-0.05243812,-0.01271880,-0.00487834,-0.00023746,-0.04659211,-0.02273497,0.99865512,0.09320459,-0.04560033,3.13994121
2355836,2.34530806,-0.02464778,0.06208576,0.08060490,-0.09503648,-0.04570140,0.99442415,-0.03850844,-0.00605641,-0.00663120,-0.00025951,-0.04757866,-0.02289499,0.99860496,0.09518013,-0.04592534,3.13992476
2388740,2.37821197,-0.04703063,0.12164013,0.09925727,-0.09703926,-0.04574692,0.99422855,-0.05603692,-0.00063979,-0.01595706,-0.00028978,-0.04858314,-0.02292064,0.99855604,0.09719222,-0.04598005,3.13993644
2421636,2.41110801,-0.06155283,-0.00506279,0.08859878,-0.09876716,-0.04671599,0.99401321,-0.02769768,-0.01529573,0.00647509,-0.00029429,-0.04945076,-0.02340761,0.99850206,0.09892848,-0.04696280,3.13985681
2454504,2.44397592,-0.05249311,0.02424809,0.07567535,-0.09976417,-0.04844130,0.99383115,-0.01278465,-0.02162705,0.00177431,-0.00027014,-0.04995263,-0.02427161,0.99845657,0.09993042,-0.04870344,3.13969779
2487356,2.47682809,-0.03637212,0.13549616,0.08406891,-0.10081300,-0.05014314,0.99364080,-0.01686279,-0.02456389,0.02637875,-0.00024731,-0.05048060,-0.02512403,0.99840888,0.10098457,-0.05042128,3.13953948
2520236,2.50970792,-0.02411486,0.04409954,0.07221133,-0.10179123,-0.05187491,0.99345226,-0.01173416,-0.01892587,0.01338363,-0.00022215,-0.05097334,-0.02599136,0.99836168,0.10196784,-0.05216942,3.13937497
2553116,2.54258799,-0.03117611,-0.00133231,0.03344104,-0.10233337,-0.05379194,0.99329452,-0.00826234,-0.02604205,0.00792617,-0.00018346,-0.05124773,-0.02695059,0.99832220,0.10251283,-0.05410223,3.13918399
2586028,2.57550001,-0.02518070,0.01372282,0.02184992,-0.10395631,-0.05492228,0.99306411,-0.03227416,-0.02222616,0.00742412,-0.00017841,-0.05206360,-0.02751819,0.99826450,0.10414447,-0.05524959,3.13906979
2618904,2.60837602,-0.02331547,-0.00452986,0.01945176,-0.10521595,-0.05644800,0.99284582,-0.01831921,-0.02143285,0.00666589,-0.00015795,-0.05269784,-0.02828296,0.99820976,0.10541107,-0.05679361,3.13891220
2651780,2.64125204,-0.01412251,-0.09312864,-0.01132465,-0.10679110,-0.05761484,0.99261074,-0.02528898,-0.01831290,0.00470376,-0.00014909,-0.05349015,-0.02886878,0.99815092,0.10699514,-0.05797868,3.13878583
2684712,2.67418408,0.02584686,-0.02877795,-0.03210873,-0.10815544,-0.05903107,0.99237976,-0.02172739,-0.02129120,0.01982731,-0.00012805,-0.05417724,-0.02957888,0.99809303,0.10836744,-0.05941434,3.13862586
2717584,2.70705604,0.03090965,0.06115314,-0.01931853,-0.10957164,-0.06040845,0.99214134,-0.02104360,-0.02040210,0.00297582,-0.00010931,-0.05489046,-0.03026976,0.99803333,0.10979211,-0.06081187,3.13846898
2750376,2.73984789,0.02304901,0.10205513,-0.00492956,-0.11132030,-0.06134166,0.99188919,-0.02149220,-0.01165638,0.00444865,-0.00010900,-0.05577001,-0.03073930,0.99797019,0.11155154,-0.06176459,3.13836145
2783164,2.77263593,0.05502450,0.00279786,-0.02198316,-0.11305332,-0.06226451,0.99163589,-0.02757169,-0.01488393,0.02740705,-0.00010746,-0.05664186,-0.03120366,0.99790678,0.11329556,-0.06270737,3.13825082
2815992,2.80546398,0.07354365,-0.02065084,-0.00706126,-0.11482090,-0.06310660,0.99137983,-0.02848965,-0.01379770,0.00105178,-0.00010987,-0.05753108,-0.03162785,0.99784269,0.11507470,-0.06356955,3.13814997
2848852,2.83832406,0.03490658,0.06861409,-0.00679479,-0.11672070,-0.06365236,0.99112281,-0.02243946,-0.00568359,-0.03311497,-0.00012293,-0.05848637,-0.03190425,0.99777812,0.11698738,-0.06413440,3.13808202
2881716,2.87118797,-0.00892649,-0.05142726,-0.02717917,-0.11867816,-0.06377949,0.99088230,-0.03537457,-0.00213848,-0.00626314,-0.00014849,-0.05947005,-0.03197153,0.99771795,0.11895854,-0.06427769,3.13806128
2914680,2.90415191,-0.00572894,-0.08593415,0.00612864,-0.12043001,-0.06463750,0.99061527,-0.02751920,-0.01348750,0.01915032,-0.00015205,-0.06035184,-0.03240404,0.99765100,0.12072303,-0.06515749,3.13795828
2947560,2.93703193,0.02398162,0.00439663,-0.03157581,-0.11924809,-0.06624627,0.99065179,0.00596683,-0.01187874,0.01642829,-0.00008132,-0.05976118,-0.03320569,0.99766016,0.11953256,-0.06677198,3.13775873
2980452,2.96992397,0.02957734,-0.03104288,-0.03970291,-0.12078689,-0.06745415,0.99038362,-0.01202562,-0.00945015,-0.00259066,-0.00006723,-0.06053689,-0.03381253,0.99759292,0.12108259,-0.06800408,3.13760375
3013392,3.00286388,0.01652067,-0.11711026,-0.03597244,-0.12256680,-0.06823132,0.99011201,-0.00633945,-0.00256947,-0.01208466,-0.00007120,-0.06143302,-0.03420469,0.99752492,0.12287578,-0.06880395,3.13750123
3046280,3.03575205,-0.00826034,0.04743032,-0.01678714,-0.12082339,-0.06917523,0.99026069,0.01437807,-0.00870563,0.00851858,-0.00001072,-0.06055895,-0.03467279,0.99756221,0.12111933,-0.06974227,3.13738369
3079088,3.06855988,0.01012557,-0.00839357,-0.02584686,-0.12224782,-0.07052307,0.98999032,-0.02252758,-0.02005311,0.02392566,0.00000763,-0.06127772,-0.03534964,0.99749431,0.12255443,-0.07111598,3.13721227
3111848,3.10132002,0.01971822,-0.09739203,0.00000000,-0.12088866,-0.07199995,0.99005136,0.01297850,-0.01662310,0.01165760,0.00007661,-0.06059800,-0.03608519,0.99750976,0.12118508,-0.07259565,3.13703298
3144612,3.13408398,0.01545482,0.02957734,-0.01798622,-0.11913056,-0.07291910,0.99019699,0.02245087,-0.01155356,0.00052571,0.00013804,-0.05971686,-0.03654098,0.99754610,0.11941422,-0.07350832,3.13691973
3177388,3.16686010,0.02971057,0.01199081,-0.02757887,-0.12033206,-0.07447167,0.98993644,-0.00686521,-0.00633888,0.03057140,0.00016517,-0.06032415,-0.03731988,0.99748096,0.12062437,-0.07508729,3.13672518
3210196,3.19966793,0.04396631,0.02291577,-0.03037672,-0.12224884,-0.07490742,0.98966865,-0.00934297,-0.00321758,0.02131766,0.00014573,-0.06128839,-0.03754187,0.99741382,0.12255541,-0.07554535,3.13666319
3243040,3.23251199,0.05022818,0.04649770,-0.00386371,-0.12420864,-0.07513216,0.98940744,-0.02740269,-0.00348113,-0.00039381,0.00011700,-0.06227385,-0.03765865,0.99734830,0.12453026,-0.07579106,3.13663053
3275876,3.26534795,0.03623890,0.01692037,0.03210873,-0.12616170,-0.07536599,0.98914241,-0.00787149,-0.00105003,0.00011539,0.00008522,-0.06325602,-0.03778029,0.99728183,0.12649883,-0.07604633,3.13660311
3308728,3.29819989,0.03743798,0.01065850,0.01865237,-0.12663227,-0.07728106,0.98893470,-0.00349468,-0.00963300,0.00960046,0.00013571,-0.06349730,-0.03873923,0.99722976,0.12697319,-0.07798728,3.13636016
3341540,3.33101201,0.04436600,0.01665390,0.02251608,-0.12515811,-0.07861599,0.98901720,0.00504093,-0.00854221,0.02074844,0.00020535,-0.06275970,-0.03940345,0.99725046,0.12548719,-0.07932223,3.13619470
3374352,3.36382389,0.05355895,0.00186524,0.01692037,-0.12484625,-0.07664985,0.98921051,0.00033453,0.00633734,0.00663906,0.00014897,-0.06259793,-0.03841937,0.99729890,0.12517290,-0.07733136,3.13644528
3407200,3.39667201,0.03290811,0.01345635,0.03277488,-0.12288675,-0.07650881,0.98946685,0.01766214,0.00155764,-0.00289464,0.00017983,-0.06161273,-0.03834444,0.99736318,0.12319819,-0.07716972,3.13647007
3440020,3.42949199,0.01905207,0.03677182,0.00839357,-0.12092397,-0.07646672,0.98971166,0.01350208,-0.00019344,0.00784689,0.00021599,-0.06062640,-0.03831895,0.99742450,0.12122068,-0.07710842,3.13647794
3472872,3.46234393,0.02864472,0.01998469,-0.00426340,-0.11981064,-0.07812101,0.98971834,-0.00177140,-0.00293367,0.02151215,0.00028824,-0.06007122,-0.03914394,0.99742622,0.12009916,-0.07876925,3.13627648
3505772,3.49524402,0.03943645,0.02864472,0.00826034,-0.12178666,-0.07810523,0.98947820,-0.01542038,-0.00050805,0.00539482,0.00024887,-0.06106391,-0.03914052,0.99736604,0.12208976,-0.07877245,3.13627648
3538624,3.52809596,0.02971057,0.02464778,0.01558805,-0.12161204,-0.07612346,0.98965415,-0.00021413,0.00043986,0.00228918,0.00019098,-0.06097121,-0.03814888,0.99741010,0.12191385,-0.07676810,3.13652205
3571424,3.56089591,0.02051761,0.02318224,0.01412251,-0.12255370,-0.07435316,0.98967247,-0.00464357,0.00770277,0.00349158,0.00011827,-0.06144009,-0.03726565,0.99741468,0.12286260,-0.07498817,3.13674092
3604232,3.59370398,0.02344870,0.01119142,0.00786064,-0.12305681,-0.07626271,0.98946495,-0.00291976,-0.00625683,0.01175570,0.00016714,-0.06169750,-0.03822184,0.99736270,0.12336952,-0.07692263,3.13650417
3637036,3.62650799,0.02171669,0.04583154,0.02398162,-0.12501155,-0.07591777,0.98924646,-0.00877751,0.00072246,0.00733560,0.00011764,-0.06267899,-0.03805396,0.99730796,0.12533948,-0.07659291,3.13654804
3669868,3.65933990,0.01718683,0.01838591,0.02491424,-0.12319226,-0.07670230,0.98941383,0.00624890,-0.00435238,0.01327169,0.00017488,-0.06176654,-0.03844222,0.99734983,0.12350604,-0.07736823,3.13645577
3702660,3.69213199,0.02464778,0.02744564,0.02318224,-0.12507063,-0.07727537,0.98913393,-0.01115984,-0.00402346,0.01330751,0.00015500,-0.06271191,-0.03873332,0.99727973,0.12539904,-0.07796591,3.13638448
3735500,3.72497200,0.03557274,0.03464012,0.02424809,-0.12704552,-0.07723766,0.98888483,-0.00259314,-0.00088734,0.01135933,0.00011421,-0.06370446,-0.03871930,0.99721727,0.12738983,-0.07794756,3.13638949
3768348,3.75781989,0.02571363,0.03903675,0.02944411,-0.12894278,-0.07664207,0.98868579,-0.00948495,0.00388816,-0.00894946,0.00005637,-0.06465671,-0.03842623,0.99716739,0.12930278,-0.07736443,3.13646841
3801200,3.79067206,0.00839357,0.01318989,0.03464012,-0.13056682,-0.07773236,0.98838758,-0.00468709,-0.00307819,0.00746202,0.00005763,-0.06547602,-0.03897572,0.99709262,0.13094067,-0.07848408,3.13632869
3834032,3.82350397,0.02424809,0.03344104,0.03903675,-0.12885119,-0.07872310,0.98853416,0.00238636,-0.00501714,0.02391702,0.00012070,-0.06461585,-0.03946704,0.99712934,0.12921046,-0.07946848,3.13620662
3866852,3.85632400,0.04982848,0.03410720,0.01492190,-0.12700181,-0.07941374,0.98871822,0.00566392,-0.00334993,0.01006108,0.00017898,-0.06368792,-0.03980791,0.99717550,0.12734574,-0.08014783,3.13612079
3899668,3.88913993,0.02744564,0.00492956,0.01998469,-0.12586270,-0.07781142,0.98899097,0.00940762,0.01189344,-0.01096368,0.00014928,-0.06311111,-0.03900378,0.99724388,0.12619743,-0.07851583,3.13632988
3932548,3.92201995,-0.00639510,0.03437366,-0.01758652,-0.12415052,-0.07687481,0.98928089,0.01184583,0.00656231,-0.00856805,0.00015473,-0.06224826,-0.03853116,0.99731655,0.12447171,-0.07755191,3.13644719
3965444,3.95491600,-0.00346401,0.05569066,-0.00319755,-0.12612843,-0.07689259,0.98902921,-0.02450633,-0.00245312,0.02659577,0.00011791,-0.06324246,-0.03854470,0.99725351,0.12646529,-0.07758945,3.13644099
3998332,3.98780393,0.03877029,-0.00333078,0.01865237,-0.12798740,-0.07750081,0.98874292,-0.02826259,-0.01038982,0.02517313,0.00010002,-0.06417847,-0.03885349,0.99718170,0.12833943,-0.07822325,3.13636302
4031184,4.02065610,0.04756355,0.02198316,0.04036906,-0.12993841,-0.07773880,0.98846960,-0.01654597,-0.00307175,0.01348352,0.00006688,-0.06515992,-0.03897756,0.99711313,0.13030688,-0.07848406,3.13633513
4064052,4.05352401,0.05142726,-0.01279020,0.03144257,-0.12844450,-0.07905488,0.98856048,-0.00143830,-0.00077910,0.01046294,0.00013673,-0.06441216,-0.03963214,0.99713592,0.12880038,-0.07979989,3.13616943
4096928,4.08640003,0.03783767,0.00026646,0.02691271,-0.12669444,-0.07999156,0.98871116,0.00437999,-0.00130727,-0.00677758,0.00019979,-0.06353480,-0.04009640,0.99717378,0.12703586,-0.08072905,3.13605451
4129716,4.11918783,0.02238285,0.04836294,0.01838591,-0.12590496,-0.07818671,0.98895597,0.00236981,0.00518866,0.00005770,0.00015726,-0.06313321,-0.03919178,0.99723510,0.12624003,-0.07889574,3.13628816
4162552,4.15202379,0.02291577,-0.00226493,0.02145023,-0.12708431,-0.07656744,0.98893222,-0.00621647,0.00259282,0.02327478,0.00008142,-0.06372184,-0.03838488,0.99722919,0.12742887,-0.07727020,3.13649702
4195416,4.18488788,0.03024349,0.01292343,0.00106585,-0.12765949,-0.07464875,0.98900432,-0.00222331,0.00140656,0.01197225,0.00000954,-0.06400631,-0.03742679,0.99724712,0.12800885,-0.07533584,3.13674283
4228228,4.21770000,0.03557274,0.03317458,0.00746095,-0.12939892,-0.07554901,0.98871030,-0.01073779,-0.00574982,0.01421940,0.00000579,-0.06488307,-0.03788119,0.99717350,0.12976278,-0.07626348,3.13662362
4261040,4.25051212,0.04862940,0.02198316,-0.00746095,-0.13135933,-0.07569884,0.98844003,-0.00658011,-0.00169375,0.01693106,-0.00002515,-0.06586936,-0.03796094,0.99710569,0.13174011,-0.07643494,3.13659858
4293900,4.28337192,0.03530628,0.02837825,0.00213170,-0.13261845,-0.07719795,0.98815622,-0.00605342,-0.00727471,-0.00133979,0.00000081,-0.06650648,-0.03871372,0.99703464,0.13301031,-0.07796487,3.13639569
4326808,4.31627988,0.01905207,0.03090965,0.00199847,-0.13071804,-0.07674624,0.98844442,0.00181179,0.00033022,0.00227827,0.00002273,-0.06554954,-0.03848297,0.99710683,0.13109321,-0.07748800,3.13645815
4359660,4.34913206,0.02411486,0.01505513,-0.00572894,-0.13119914,-0.07866032,0.98823051,-0.00381061,-0.00556820,0.02104688,0.00007709,-0.06579650,-0.03944131,0.99705324,0.13157850,-0.07942968,3.13620209
4392572,4.38204383,0.02691271,0.00106585,-0.00666156,-0.13099606,-0.07668290,0.98841238,-0.00010745,0.00392899,0.00450754,0.00001692,-0.06568926,-0.03845189,0.99709882,0.13137366,-0.07742679,3.13646292
4425416,4.41488790,0.01199081,0.04436600,-0.00799387,-0.13295462,-0.07688376,0.98813533,-0.02036569,-0.00270608,0.00649357,-0.00001305,-0.06667488,-0.03855729,0.99702939,0.13334949,-0.07765047,3.13643121
4458276,4.44774818,0.01412251,-0.01518836,0.00359724,-0.13450765,-0.07563471,0.98802156,-0.00684977,0.00336909,0.01100188,-0.00008476,-0.06745291,-0.03793685,0.99700078,0.13491665,-0.07640267,3.13659834
4491132,4.48060417,0.00999234,0.00186524,-0.00226493,-0.13412578,-0.07759111,0.98792190,0.00106914,-0.01029952,0.00573045,-0.00001120,-0.06726587,-0.03891398,0.99697589,0.13453121,-0.07837882,3.13633227
4523948,4.51342010,0.03064318,0.02544717,0.00826034,-0.13604205,-0.07800024,0.98762741,-0.00458294,-0.00232203,0.02677685,-0.00003502,-0.06823104,-0.03912371,0.99690198,0.13646526,-0.07881379,3.13627409
4556788,4.54625988,0.04849617,-0.02717917,0.01851914,-0.13611373,-0.07997569,0.98745985,-0.00036088,0.00160654,0.00326282,0.00002989,-0.06827244,-0.04011175,0.99686002,0.13653757,-0.08081493,3.13600397
4589632,4.57910394,0.02797856,-0.01492190,0.01771975,-0.13446526,-0.07892251,0.98777008,0.01019768,0.00641274,-0.00949860,0.00002563,-0.06744016,-0.03958073,0.99693775,0.13487381,-0.07973029,3.13615345
4622456,4.61192798,-0.00293109,-0.00386371,0.01039204,-0.13337929,-0.07728905,0.98804645,0.00300820,0.00331444,-0.00928670,-0.00000898,-0.06688950,-0.03876113,0.99700708,0.13377799,-0.07806513,3.13637852
4655300,4.64477205,0.00093262,0.00399694,0.01385605,-0.13154255,-0.07803186,0.98823432,0.00385700,-0.00644080,0.03764456,0.00005041,-0.06596758,-0.03912786,0.99705419,0.13192492,-0.07879739,3.13628363
4688104,4.67757606,0.06275191,0.00333078,-0.00826034,-0.12958163,-0.07792010,0.98850212,0.00336093,-0.00215802,0.03322643,0.00008654,-0.06498126,-0.03906689,0.99712123,0.12994707,-0.07866377,3.13629817
4720968,4.71044015,0.06448392,0.00666156,0.00253139,-0.13100962,-0.07651188,0.98842382,-0.00155874,0.00449040,-0.01454687,0.00001342,-0.06569573,-0.03836626,0.99710168,0.13138735,-0.07725391,3.13648080
4753820,4.74329185,0.01212404,0.01652067,-0.00546248,-0.13290607,-0.07700428,0.98813247,-0.00259197,0.00058825,-0.03061295,-0.00000604,-0.06665086,-0.03861728,0.99702863,0.13330053,-0.07777191,3.13641095
4786720,4.77619218,-0.01518836,0.03210873,0.00119908,-0.13211034,-0.07883858,0.98809461,-0.00265528,-0.00246025,0.02215928,0.00007045,-0.06625545,-0.03953246,0.99701919,0.13249769,-0.07961981,3.13616609
4819632,4.80910396,0.04596477,0.02198316,0.00492956,-0.13280398,-0.08067649,0.98785324,-0.00830929,-0.00794656,0.05096507,0.00011789,-0.06660935,-0.04045342,0.99695863,0.13319752,-0.08148764,3.13591814
4852504,4.84197616,0.06022052,0.00905972,0.00492956,-0.13399710,-0.07906025,0.98782291,-0.00052437,0.00313251,-0.00930727,0.00004018,-0.06720506,-0.03964831,0.99695100,0.13440139,-0.07986461,3.13613414
4885344,4.87481594,0.01705360,-0.01305666,0.00466309,-0.13567941,-0.07799902,0.98767738,0.00140207,0.00182715,-0.01648599,-0.00002916,-0.06804853,-0.03912221,0.99691448,0.13609923,-0.07880860,3.13627719
4918204,4.90767621,-0.00719449,0.03090965,0.00905972,-0.13374854,-0.07837462,0.98791131,0.01827003,-0.00463319,0.01282114,0.00002079,-0.06707812,-0.03930488,0.99697322,0.13415055,-0.07916787,3.13622999
4951052,4.94052410,0.01358959,0.01478867,0.00093262,-0.13261039,-0.08001476,0.98793306,-0.00117867,-0.00421376,0.02158844,0.00009823,-0.06651009,-0.04012207,0.99697866,0.13300220,-0.08081569,3.13601040
4983872,4.97334384,0.01945176,0.00346401,0.00413017,-0.13066108,-0.07980134,0.98821010,0.00932319,0.00069978,0.00593054,0.00013012,-0.06552919,-0.04001025,0.99704818,0.13103578,-0.08057856,3.13604187
5016684,5.00615596,0.01159112,0.01905207,0.00213170,-0.13041400,-0.08177521,0.98808135,-0.00020123,-0.00733612,0.00752413,0.00019994,-0.06541040,-0.04099687,0.99701585,0.13078656,-0.08257342,3.13578104
5049512,5.03898382,0.00013323,0.00413017,-0.00532925,-0.12856239,-0.08114643,0.98837575,0.02040810,0.00741596,-0.00986010,0.00021778,-0.06447772,-0.04067756,0.99708957,0.12891923,-0.08191707,3.13586521
5082344,5.07181596,-0.02171669,0.00772741,-0.03890352,-0.12659690,-0.08127229,0.98861894,0.03431174,-0.00222380,0.00552171,0.00026506,-0.06349016,-0.04073539,0.99715051,0.12693755,-0.08202346,3.13584518
5115260,5.10473203,-0.02264931,0.09672588,-0.08220368,-0.12467229,-0.08097951,0.98888769,-0.00228084,-0.00178416,0.02307522,0.00030245,-0.06252236,-0.04058375,0.99721794,0.12499758,-0.08170718,3.13586997
5148184,5.13765621,0.00639510,0.03783767,-0.05289280,-0.12663345,-0.08117285,0.98862257,-0.06477280,-0.00842676,0.02089894,0.00027354,-0.06350877,-0.04068494,0.99715147,0.12697439,-0.08192327,3.13583302
5181072,5.17054414,0.02837825,0.00786064,0.00492956,-0.12850188,-0.08175671,0.98833322,-0.04312898,-0.01467884,0.01947928,0.00025395,-0.06444961,-0.04098170,0.99707899,0.12885820,-0.08253389,3.13575530
5213948,5.20342016,0.04969525,0.00439663,0.01092496,-0.13035182,-0.08238608,0.98803892,-0.02956028,-0.01111978,0.01977360,0.00023596,-0.06538146,-0.04130130,0.99700527,0.13072382,-0.08319100,3.13567090
5246764,5.23623609,0.04409954,-0.02051761,0.03503981,-0.13231474,-0.08232172,0.98778314,-0.02222628,0.00102288,-0.00755852,0.00019078,-0.06636827,-0.04127445,0.99694099,0.13270391,-0.08314772,3.13568162
5279636,5.26910781,0.02451455,-0.00972588,0.03090965,-0.13060641,-0.08333941,0.98792524,0.00902438,-0.00479536,-0.00306195,0.00025727,-0.06551203,-0.04177916,0.99697666,0.13098063,-0.08415876,3.13555383
5312504,5.30197620,0.00692802,-0.00079939,0.01039204,-0.12908184,-0.08462602,0.98801631,0.00432599,-0.00375288,0.00075322,0.00033045,-0.06474923,-0.04241889,0.99699954,0.12944304,-0.08544392,3.13538861
5345312,5.33478403,0.01438897,0.02011792,0.01985145,-0.12734185,-0.08558115,0.98815946,0.00283013,-0.00621572,0.03015107,0.00039683,-0.06387733,-0.04289239,0.99703531,0.12768859,-0.08639106,3.13527011
5378132,5.36760377,0.04476570,0.01758652,-0.00919296,-0.12565492,-0.08662884,0.98828468,0.00456117,-0.00712116,0.02611965,0.00046799,-0.06303267,-0.04341226,0.99706678,0.12598794,-0.08743229,3.13513541
5410936,5.40040779,0.04916233,0.01572129,-0.00039969,-0.12762274,-0.08646246,0.98804655,-0.02325615,0.00198980,-0.00415987,0.00042065,-0.06402122,-0.04333400,0.99700698,0.12797179,-0.08728613,3.13515257
5443724,5.43319606,0.02025115,-0.00439663,0.01292343,-0.12954674,-0.08600325,0.98783664,-0.01083411,0.00299544,-0.00492644,0.00036325,-0.06498696,-0.04310931,0.99695444,0.12991185,-0.08684326,3.13521146
5476628,5.46610021,0.02038438,0.03090965,0.01931853,-0.13145556,-0.08545704,0.98763141,-0.02162060,0.00342579,0.01993692,0.00030321,-0.06594501,-0.04284121,0.99690294,0.13183718,-0.08631228,3.13528299
5509484,5.49895620,0.04942879,-0.02424809,0.04849617,-0.13338218,-0.08502810,0.98741044,-0.01456703,0.00153200,0.01258951,0.00024394,-0.06691243,-0.04263212,0.99684762,0.13378089,-0.08590031,3.13534522
5542380,5.53185176,0.02784533,-0.00919296,0.02744564,-0.13160448,-0.08421364,0.98771867,0.00587206,0.00291482,-0.00920302,0.00025245,-0.06601591,-0.04221999,0.99692487,0.13198738,-0.08505505,3.13546156
5575292,5.56476402,0.01971822,0.01318989,0.02717917,-0.13232793,-0.08604021,0.98746433,-0.00414667,-0.00526839,0.02034819,0.00029549,-0.06638510,-0.04313589,0.99686107,0.13271725,-0.08691296,3.13522028
5608156,5.59762811,0.03717151,-0.00866003,0.03104288,-0.13103270,-0.08456830,0.98776445,0.00066161,0.00180462,0.01711840,0.00027229,-0.06572926,-0.04239614,0.99693641,0.13141058,-0.08540758,3.13542318
5640996,5.63046789,0.04783001,-0.02624655,0.03370750,-0.13296626,-0.08418137,0.98753881,-0.01498295,0.00263840,0.00074244,0.00021613,-0.06670038,-0.04220797,0.99687976,0.13336124,-0.08503803,3.13547682
5673840,5.66331195,0.02158346,0.00466309,0.01318989,-0.13105218,-0.08377257,0.98782939,0.01484124,0.00369444,-0.00784892,0.00024212,-0.06573658,-0.04199835,0.99695262,0.13143028,-0.08460227,3.13553595
5706608,5.69608020,-0.00106585,0.04743032,0.00000000,-0.13299939,-0.08340347,0.98760051,-0.00445178,0.00063979,0.00141317,0.00018927,-0.06671475,-0.04181894,0.99689521,0.13339465,-0.08425069,3.13558197
5739404,5.72887611,0.01971822,-0.01105819,0.03090965,-0.13390375,-0.08514077,0.98733024,-0.00769781,-0.00934166,0.03024793,0.00022584,-0.06717463,-0.04269065,0.99682750,0.13430715,-0.08602055,3.13535070
5772280,5.76175212,0.05968760,0.00079939,0.01771975,-0.13194646,-0.08500116,0.98760585,0.00450507,-0.00118049,0.01996255,0.00026219,-0.06618983,-0.04261547,0.99689664,0.13233234,-0.08585631,3.13537406
5805104,5.79457616,0.05129403,-0.00492956,0.01265697,-0.13028473,-0.08396687,0.98791446,0.00113435,0.00071491,-0.00646913,0.00026285,-0.06535120,-0.04209363,0.99697389,0.13065618,-0.08479028,3.13551497
5837972,5.82744407,0.02451455,0.01532159,0.01345635,-0.12893993,-0.08254510,0.98821048,0.00369580,0.00368768,-0.00285894,0.00024382,-0.06467096,-0.04137893,0.99704818,0.12929995,-0.08333641,3.13570523
5870784,5.86025619,0.00639510,0.00666156,0.00905972,-0.13064846,-0.08152075,0.98807134,-0.00973239,0.00559302,0.00069815,0.00017476,-0.06552708,-0.04087099,0.99701328,0.13102303,-0.08231847,3.13583850
5903648,5.89311981,-0.01318989,0.00319755,0.01185758,-0.12869639,-0.08180190,0.98830423,0.00345226,0.00025892,-0.00710303,0.00022279,-0.06454635,-0.04100665,0.99707164,0.12905436,-0.08258171,3.13580656
5936560,5.92603206,-0.03690505,0.00306432,0.00905972,-0.12907570,-0.08374883,0.98809156,0.00236672,-0.00218867,-0.02495682,0.00027648,-0.06474250,-0.04198169,0.99701833,0.12943686,-0.08455607,3.13555479
5969440,5.95891189,-0.04050230,0.02211639,0.01292343,-0.13089154,-0.08448797,0.98779001,-0.01754595,-0.00730892,0.00415337,0.00026094,-0.06565756,-0.04235634,0.99694271,0.13126820,-0.08532465,3.13545751
6002328,5.99179983,-0.06768147,-0.02811179,0.00253139,-0.12921273,-0.08557902,0.98791694,0.00909555,-0.00646200,0.00427055,0.00033114,-0.06481668,-0.04289783,0.99697456,0.12957503,-0.08641001,3.13531875
6035208,6.02468013,-0.04636447,0.01292343,0.00413017,-0.12962303,-0.08751939,0.98769330,-0.01173440,-0.02454116,0.05600786,0.00038437,-0.06502876,-0.04386988,0.99691848,0.12998878,-0.08837905,3.13506555
6068080,6.05755186,0.07381011,-0.08646708,-0.04743032,-0.13018804,-0.08938992,0.98745145,-0.01287836,-0.02022922,0.06186491,0.00043695,-0.06531885,-0.04480721,0.99685783,0.13055865,-0.09027982,3.13481020
6100904,6.09037590,0.11857581,-0.06448392,0.00000000,-0.13211911,-0.08963284,0.98717250,-0.03218752,-0.00387302,-0.01183075,0.00040249,-0.06629058,-0.04493407,0.99678783,0.13250656,-0.09054925,3.13477301
6133756,6.12322807,0.06408423,-0.07234457,0.02984380,-0.13336563,-0.09111415,0.98686962,-0.00555038,-0.00678624,-0.00444776,0.00042112,-0.06692210,-0.04567909,0.99671192,0.13376417,-0.09206543,3.13457655
6166632,6.15610408,0.00492956,-0.02531394,0.02198316,-0.13526194,-0.09156828,0.98656902,-0.02489431,-0.00486726,-0.02270186,0.00039095,-0.06787724,-0.04591204,0.99663639,0.13567788,-0.09254973,3.13451552
6199512,6.18898391,-0.03850383,-0.05622358,0.11830935,-0.13720929,-0.09133912,0.98632164,-0.04076922,0.00247193,0.01709628,0.00032742,-0.06885552,-0.04580391,0.99657449,0.13764352,-0.09234244,3.13456583
6232432,6.22190380,0.01225727,-0.02438132,0.18012863,-0.13532474,-0.09081876,0.98663005,0.00519779,-0.00097812,0.04559648,0.00033719,-0.06790509,-0.04553895,0.99665184,0.13574123,-0.09179079,3.13467216
6265356,6.25482797,0.05808882,-0.07114548,0.12683613,-0.13335196,-0.09077027,0.98690309,0.09306877,0.00068238,0.02408320,0.00036966,-0.06691226,-0.04550966,0.99672031,0.13375039,-0.09171680,3.13470387
6298224,6.28769588,0.06648239,-0.00866003,0.04609801,-0.13140137,-0.09055558,0.98718433,0.07256349,0.00828018,0.00036454,0.00040361,-0.06593060,-0.04539686,0.99679079,0.13178250,-0.09147516,3.13474249
6331068,6.32053995,0.02291577,-0.00812710,0.01372282,-0.12943924,-0.09044909,0.98745307,0.05107011,0.00548815,-0.02700388,0.00044386,-0.06494379,-0.04533816,0.99685811,0.12980351,-0.09134346,3.13476133
6363932,6.35340404,-0.03703828,0.05449157,-0.00199847,-0.12748384,-0.09039829,0.98771228,0.03056002,0.00201938,-0.00895250,0.00048675,-0.06396078,-0.04530741,0.99692316,0.12783174,-0.09126862,3.13477063
6396812,6.38628387,-0.02518070,0.03797090,0.00826034,-0.12944233,-0.09060677,0.98743829,-0.00581157,-0.00363151,0.03868478,0.00044823,-0.06494582,-0.04541714,0.99685440,0.12980661,-0.09150320,3.13474202
6429652,6.41912412,0.03757121,0.03237519,0.02424809,-0.13123576,-0.08973028,0.98728160,-0.01060994,-0.00035761,0.03493523,0.00037763,-0.06584458,-0.04498353,0.99681510,0.13161545,-0.09063718,3.13485765
6462440,6.45191192,0.05289280,0.00000000,0.05888820,-0.13162280,-0.09165523,0.98705348,0.00003101,-0.00233892,-0.00463158,0.00042791,-0.06604519,-0.04594832,0.99675798,0.13200587,-0.09259190,3.13460946
6495228,6.48470020,0.01318989,0.00266462,0.04423277,-0.12965879,-0.09163022,0.98731565,0.02614316,0.00154233,-0.01050901,0.00046860,-0.06505756,-0.04593050,0.99682369,0.13002486,-0.09254232,3.13462328
6528048,6.51751995,-0.01105819,0.01692037,0.05142726,-0.12772436,-0.09133642,0.98759489,0.00638647,0.00027196,0.01069611,0.00049917,-0.06408410,-0.04577842,0.99689369,0.12807424,-0.09222134,3.13467335
6560892,6.55036401,-0.00413017,0.02637979,0.04929555,-0.12576358,-0.09128814,0.98785095,0.04373233,-0.00050874,0.02362370,0.00053845,-0.06309837,-0.04574927,0.99695787,0.12609750,-0.09214913,3.13469076
6593720,6.58319187,0.01692037,0.03104288,0.00146554,-0.12380017,-0.09137367,0.98809137,0.02174938,-0.00286461,0.02216250,0.00058645,-0.06211214,-0.04578693,0.99701824,0.12411859,-0.09221266,3.13468217
6626532,6.61600399,0.04076876,0.05169372,-0.02318224,-0.12184329,-0.09155138,0.98831768,0.01173586,-0.00244276,0.01436788,0.00063969,-0.06112980,-0.04587076,0.99707489,0.12214684,-0.09236993,3.13465714
6659360,6.64883184,0.03623890,0.02145023,-0.01305666,-0.12373270,-0.09207674,0.98803415,-0.01469503,-0.00387053,-0.00707716,0.00061386,-0.06208068,-0.04613850,0.99700374,0.12405066,-0.09292346,3.13458609
6692240,6.68171215,0.00639510,0.03877029,0.00186524,-0.12540489,-0.09097891,0.98792495,-0.00374550,0.00308828,-0.00379407,0.00054133,-0.06291737,-0.04559325,0.99697647,0.12573599,-0.09183189,3.13472175
6725132,6.71460390,0.00866003,0.00053292,-0.00333078,-0.12411879,-0.09250880,0.98794536,0.00082777,-0.00539159,0.01815820,0.00061933,-0.06227608,-0.04635576,0.99698152,0.12443974,-0.09336533,3.13452935
6757968,6.74743986,0.00253139,0.00186524,-0.00106585,-0.12226536,-0.09322248,0.98810949,0.00336888,-0.00248065,0.00871670,0.00068468,-0.06134731,-0.04670830,0.99702262,0.12257208,-0.09406584,3.13444280
6790784,6.78025579,-0.01931853,-0.02371516,-0.02651302,-0.12031402,-0.09358000,0.98831539,0.03169097,-0.00651766,0.00997567,0.00074313,-0.06036847,-0.04688230,0.99707422,0.12060620,-0.09440492,3.13439798
6823660,6.81313180,0.00306432,0.04436600,-0.06461715,-0.11893374,-0.09502120,0.98834476,0.00711733,-0.01191239,0.02068848,0.00082499,-0.05968031,-0.04760028,0.99708156,0.11921595,-0.09584717,3.13421344
6856452,6.84592390,0.01305666,-0.00373047,-0.02771210,-0.12088487,-0.09525294,0.98808584,-0.01021866,-0.00142675,0.00117201,0.00078781,-0.06066100,-0.04772105,0.99701671,0.12118123,-0.09610452,3.13417768
6889308,6.87877988,0.01785299,0.05329250,-0.02371516,-0.12279891,-0.09571225,0.98780498,-0.00293351,-0.00096744,0.00340593,0.00075865,-0.06162402,-0.04795581,0.99694623,0.12310968,-0.09659232,3.13411283
6922140,6.91161203,0.01945176,0.02105054,-0.00905972,-0.12470355,-0.09514504,0.98762149,-0.01055036,0.00261574,0.00285697,0.00069664,-0.06257896,-0.04767671,0.99690036,0.12502906,-0.09604118,3.13417863
6954988,6.94445991,0.01012557,0.01012557,-0.01172435,-0.12637891,-0.09614649,0.98731126,-0.00301561,-0.00199804,0.00878245,0.00068901,-0.06342420,-0.04818264,0.99682245,0.12671780,-0.09707604,3.13404655
6987812,6.97728395,0.01638744,-0.00706126,0.01159112,-0.12793724,-0.09731369,0.98699636,-0.01342018,-0.01010819,0.02374584,0.00068752,-0.06421126,-0.04877152,0.99674348,0.12828886,-0.09827816,3.13389539
7020668,7.01013994,0.03117611,-0.02118377,0.01958499,-0.12652854,-0.09872973,0.98703727,0.00982933,-0.01235425,0.01076549,0.00076581,-0.06350832,-0.04947685,0.99675369,0.12686861,-0.09969473,3.13371825
7053552,7.04302406,0.02784533,0.01079173,0.00732772,-0.12457102,-0.09896739,0.98726224,0.04546946,-0.00479238,-0.00215483,0.00082168,-0.06252572,-0.04959051,0.99681005,0.12489553,-0.09991050,3.13369154
7086408,7.07588005,0.01438897,0.00945942,-0.02011792,-0.12268985,-0.09842803,0.98755178,0.02137149,0.00516631,0.01806349,0.00085366,-0.06157899,-0.04931518,0.99688262,0.12299979,-0.09934066,3.13375782
7119260,7.10873222,0.04183461,0.02264931,-0.02291577,-0.12075501,-0.09882623,0.98775062,0.00503235,-0.00517768,0.03373372,0.00091625,-0.06060879,-0.04950945,0.99693250,0.12105045,-0.09971993,3.13370656
7152128,7.14160013,0.07620828,0.06168606,-0.01265697,-0.12268065,-0.09923428,0.98747234,-0.01159669,-0.00330479,0.00862145,0.00088318,-0.06157742,-0.04971873,0.99686269,0.12299051,-0.10015696,3.13364863
7185016,7.17448806,0.05169372,-0.00719449,0.00039969,-0.12464396,-0.09903105,0.98724679,-0.01109823,0.00259550,-0.01483470,0.00082849,-0.06256291,-0.04962217,0.99680624,0.12496901,-0.09997588,3.13367009
7217884,7.20735597,0.00945942,0.00106585,0.00119908,-0.12365169,-0.10076422,0.98719635,0.00475520,-0.00519281,-0.00990140,0.00090723,-0.06207067,-0.05048768,0.99679355,0.12396898,-0.10171884,3.13345384
7250712,7.24018383,0.03690505,0.01918530,0.00945942,-0.12191456,-0.09987307,0.98750295,0.00423878,0.00026370,0.05082715,0.00092335,-0.06119500,-0.05003663,0.99687042,0.12221863,-0.10079426,3.13356781
7283492,7.27296400,0.07474272,-0.01065850,0.00519602,-0.12004139,-0.09928355,0.98779172,0.01945546,0.00528941,0.01416141,0.00095262,-0.06025228,-0.04973643,0.99694271,0.12033160,-0.10017417,3.13364219
7316340,7.30581188,0.05129403,0.00972588,-0.00359724,-0.12104268,-0.09754401,0.98784294,0.00336689,0.00184087,-0.02470815,0.00087631,-0.06074910,-0.04886754,0.99695568,0.12134022,-0.09842537,3.13385105
7349152,7.33862400,0.00239816,0.03011026,-0.00826034,-0.11918790,-0.09824518,0.98799877,0.01396328,-0.00380561,-0.00899482,0.00094391,-0.05982018,-0.04921403,0.99699459,0.11947195,-0.09911275,3.13376665
7381976,7.37144804,0.01851914,0.02677948,-0.00892649,-0.12103317,-0.09890784,0.98770847,-0.00469925,-0.00387537,0.03890282,0.00091947,-0.06074913,-0.04955058,0.99692192,0.12133064,-0.09980596,3.13368082
7414848,7.40431976,0.06248545,0.02851149,-0.00133231,-0.12297081,-0.09846357,0.98751335,-0.01374794,0.00153974,0.01077765,0.00085894,-0.06172078,-0.04933303,0.99687299,0.12328289,-0.09938013,3.13373064
7447652,7.43712377,0.04103522,0.00146554,0.01438897,-0.12408730,-0.09679687,0.98753843,-0.00286582,0.01012694,-0.02049744,0.00077906,-0.06227578,-0.04850127,0.99687938,0.12440799,-0.09770622,3.13393926
7480476,7.46994781,-0.00146554,0.03570597,-0.00293109,-0.12232909,-0.09772119,0.98766689,0.00880370,-0.00262061,-0.01159263,0.00085107,-0.06139583,-0.04895955,0.99691152,0.12263628,-0.09862048,3.13382554
7513328,7.50279998,0.00066616,-0.00253139,-0.01438897,-0.12206357,-0.09969017,0.98750295,-0.00269229,-0.00651101,0.02568066,0.00091923,-0.06126945,-0.04994507,0.99687042,0.12236875,-0.10061091,3.13357973
7546220,7.53569221,0.03477335,0.01279020,-0.00279786,-0.12013463,-0.10012838,0.98769493,0.00905064,-0.00607279,0.03208041,0.00098160,-0.06030238,-0.05015957,0.99691848,0.12042553,-0.10103065,3.13352751
7579136,7.56860780,0.05249311,0.00492956,0.00039969,-0.11823376,-0.10068888,0.98786754,-0.00066273,-0.00014120,0.00236678,0.00104686,-0.05935000,-0.05043554,0.99696168,0.11851098,-0.10157469,3.13346147
7611996,7.60146808,0.03424043,0.00626187,-0.00253139,-0.11635462,-0.10132743,0.98802556,0.01113000,-0.00389719,0.00147641,0.00111390,-0.05840899,-0.05075083,0.99700126,0.11661876,-0.10219817,3.13338708
7644836,7.63430786,0.01665390,0.01159112,-0.00772741,-0.11669049,-0.09936576,0.98818473,-0.00074115,0.00293022,0.00204962,0.00104905,-0.05857075,-0.04976869,0.99704113,0.11695699,-0.10021696,3.13361620
7677700,7.66717195,0.01971822,0.01492190,-0.01305666,-0.11766037,-0.10106518,0.98789768,-0.00733963,-0.01050708,0.02113557,0.00107607,-0.05906366,-0.05062246,0.99696922,0.11793355,-0.10194861,3.13341021
7710564,7.70003604,0.04822971,-0.03837059,-0.00786064,-0.11959459,-0.10136169,0.98763465,-0.01639173,-0.00532777,0.03116417,0.00103653,-0.06003584,-0.05077586,0.99690322,0.11988158,-0.10227267,3.13337016
7743416,7.73288822,0.05489127,0.01145789,-0.00732772,-0.11840339,-0.09980485,0.98793687,0.01073737,0.01362321,-0.00282949,0.00102150,-0.05943230,-0.04999274,0.99697914,0.11868181,-0.10068191,3.13355684
7776236,7.76570796,0.03317458,-0.09659265,-0.04076876,-0.11645795,-0.09942578,0.98820610,0.02612591,0.00567577,-0.00431943,0.00106203,-0.05845450,-0.04979788,0.99704656,0.11672284,-0.10027493,3.13359856
7809092,7.79856395,0.02677948,-0.04263400,-0.07554212,-0.11447660,-0.09953246,0.98842697,0.02170316,-0.00300661,0.01938552,0.00112102,-0.05746071,-0.04984627,0.99710187,0.11472815,-0.10035953,3.13357591
7841940,7.83141183,0.06048698,0.06954670,-0.07700766,-0.11547091,-0.10121722,0.98814048,-0.00562285,-0.00620466,0.03505283,0.00115224,-0.05796601,-0.05069237,0.99703006,0.11572905,-0.10207600,3.13336300
7874784,7.86425590,0.08513477,-0.11617765,-0.05968760,-0.11484546,-0.09933305,0.98840427,0.00229663,0.00851274,0.00646877,0.00111868,-0.05764577,-0.04974649,0.99709615,0.11509946,-0.10016210,3.13357329
7907684,7.89715576,0.05462480,-0.04330015,-0.07887290,-0.11286276,-0.09932192,0.98863391,0.00959127,0.00020082,-0.00084090,0.00117462,-0.05665104,-0.04973598,0.99715366,0.11310377,-0.10012785,3.13356351
7940572,7.93004417,0.08087137,0.17000307,-0.03170903,-0.11486597,-0.09928217,0.98840694,-0.04699927,-0.00374517,0.03796023,0.00112867,-0.05765648,-0.04972036,0.99709682,0.11512010,-0.10011087,3.13355517
7973428,7.96290016,0.13709495,-0.01225727,0.05742266,-0.11673761,-0.09858927,0.98825712,-0.06026435,0.01875529,0.01442844,0.00105838,-0.05859336,-0.04937782,0.99705934,0.11700441,-0.09943178,3.13364124
8006296,7.99576807,0.09219602,-0.10298775,0.00626187,-0.11482900,-0.09804977,0.98853454,0.06062977,0.01870407,-0.02051693,0.00108936,-0.05763346,-0.04910308,0.99712886,0.11508285,-0.09886364,3.13370800
8039140,8.02861213,0.06941348,0.06261868,-0.05848851,-0.11331843,-0.09680909,0.98883075,0.01200007,0.00965088,0.00970435,0.00109699,-0.05687146,-0.04847774,0.99720306,0.11356239,-0.09759157,3.13384079
8071972,8.06144428,0.05529096,-0.14908576,-0.05649004,-0.11215013,-0.09520867,0.98911952,0.01205247,0.01683953,0.00306797,0.00108416,-0.05628008,-0.04767320,0.99727554,0.11238659,-0.09596035,3.13401627
8104788,8.09426021,0.03650536,-0.06728178,-0.02358193,-0.11036821,-0.09435994,0.98940105,0.03395219,0.01647908,-0.00209635,0.00110472,-0.05538328,-0.04724416,0.99734601,0.11059355,-0.09508317,3.13411021
8137628,8.12709999,0.02824502,0.13309800,-0.10991578,-0.10841463,-0.09447710,0.98960609,0.05983064,-0.00464399,0.01625329,0.00116507,-0.05440401,-0.04729826,0.99739742,0.10862815,-0.09518094,3.13407778
8170396,8.15986824,0.05875497,0.00532925,-0.12217305,-0.11035681,-0.09479055,0.98936128,-0.06810998,-0.01409617,0.02846098,0.00113860,-0.05537997,-0.04745864,0.99733610,0.11058207,-0.09551829,3.13401865
8203172,8.19264411,0.07007963,-0.10098929,-0.03317458,-0.11167098,-0.09328737,0.98935680,-0.01064348,0.01027955,0.00722522,0.00106852,-0.05603472,-0.04670828,0.99733505,0.11190439,-0.09401294,3.13418030
8236000,8.22547245,0.04156814,-0.02971057,-0.07474272,-0.10997594,-0.09228731,0.98964052,0.04479040,0.02734590,-0.02821475,0.00108691,-0.05518132,-0.04620352,0.99740619,0.11019885,-0.09298446,3.13428092
8268820,8.25829219,-0.02251608,-0.07873966,-0.09299541,-0.11097822,-0.09057229,0.98968677,-0.00157062,0.00512307,-0.00872970,0.00102362,-0.05567930,-0.04534625,0.99741773,0.11120731,-0.09126192,3.13445687
8301716,8.29118824,-0.00959265,-0.24754364,-0.04676416,-0.10896701,-0.09079710,0.98988990,0.00056857,-0.00344119,0.03281522,0.00107745,-0.05467087,-0.04545470,0.99746866,0.10918383,-0.09146850,3.13443040
8334612,8.32408428,0.01025880,-0.15401531,-0.07394334,-0.10697053,-0.09065488,0.99012069,0.07596467,0.00471738,0.01793593,0.00112442,-0.05366904,-0.04537934,0.99752645,0.10717560,-0.09130486,3.13443732
8367456,8.35692787,-0.00186524,0.01891884,-0.11617765,-0.10849772,-0.09188854,0.98984079,-0.00698080,-0.00576772,0.03042287,0.00113282,-0.05443944,-0.04599961,0.99745635,0.10871173,-0.09256635,3.13428115
8400352,8.38982391,0.03370750,-0.15188361,-0.04769678,-0.10874520,-0.09384140,0.98962993,-0.00429191,-0.00576797,0.03551650,0.00118336,-0.05456989,-0.04697811,0.99740333,0.10896071,-0.09454206,3.13406014
8433236,8.42270755,0.05062787,-0.12337213,-0.04250077,-0.10677660,-0.09352639,0.98987426,0.04940355,0.00856545,-0.00403440,0.00122437,-0.05358147,-0.04681629,0.99746456,0.10698058,-0.09420345,3.13409018
8466108,8.45557975,0.01798622,0.08766615,-0.06501685,-0.10484232,-0.09322203,0.99010963,0.04698100,0.00801695,-0.00378156,0.00126807,-0.05261063,-0.04665986,0.99752349,0.10503538,-0.09387648,3.13411188
8498956,8.48842811,0.00146554,-0.06674885,-0.03437366,-0.10296405,-0.09259951,0.99036540,0.00823748,0.00275576,0.00108969,0.00129818,-0.05166683,-0.04634449,0.99758758,0.10314686,-0.09322930,3.13417410
8531752,8.52122402,-0.02171669,0.04703063,0.00173201,-0.10099279,-0.09264505,0.99056415,0.05802404,-0.00183737,0.01236552,0.00134510,-0.05067850,-0.04636390,0.99763736,0.10116528,-0.09325628,3.13417148
8564572,8.55404376,0.00026646,0.09059724,-0.07154518,-0.10256649,-0.09383810,0.99028997,-0.00583195,-0.00528299,0.05219048,0.00134560,-0.05147159,-0.04696398,0.99756860,0.10274718,-0.09447610,3.13403344
8597352,8.58682441,0.07727412,0.05182695,0.09086371,-0.10448069,-0.09324516,0.99014587,-0.05494313,0.01194633,0.03353572,0.00127849,-0.05242938,-0.04667070,0.99753265,0.10467174,-0.09389621,3.13410711
8630144,8.61961555,0.08366923,-0.00066616,0.08806585,-0.10265814,-0.09249520,0.99040679,0.03698430,0.01632332,-0.02336580,0.00129472,-0.05151274,-0.04629210,0.99759788,0.10283932,-0.09312103,3.13420104
8662940,8.65241241,0.00799387,-0.09605972,0.07434303,-0.10462155,-0.09243909,0.99020662,-0.02745853,0.00235120,-0.01974768,0.00124060,-0.05249690,-0.04626787,0.99754791,0.10481336,-0.09308355,3.13421916
8695788,8.68525981,-0.00452986,-0.09579326,0.15654669,-0.10599802,-0.09099966,0.99019327,-0.00508597,-0.00006481,0.02616417,0.00115670,-0.05318228,-0.04555016,0.99754447,0.10619755,-0.09164348,3.13439941
8728664,8.71813583,0.01811945,-0.22635986,0.18679021,-0.10398373,-0.09101772,0.99040536,0.05051692,-0.00199986,0.02009267,0.00118542,-0.05217119,-0.04555645,0.99759769,0.10417203,-0.09164207,3.13443517
8761484,8.75095558,-0.00186524,-0.02691271,0.16094334,-0.10200290,-0.09108272,0.99060544,0.10053806,-0.00193486,-0.00574219,0.00121830,-0.05117736,-0.04558624,0.99764785,0.10218062,-0.09168871,3.13445854
8794336,8.78380775,0.02491424,0.14229096,0.14455590,-0.10005726,-0.09094196,0.99081649,0.05367054,0.00158648,0.03017962,0.00124799,-0.05020086,-0.04551298,0.99770059,0.10022501,-0.09152840,3.13449716
8827120,8.81659221,0.05475804,-0.30430011,0.10485299,-0.09804814,-0.09066905,0.99104261,0.09731572,0.01229990,0.01994371,0.00127619,-0.04919230,-0.04537350,0.99775733,0.09820594,-0.09123456,3.13454794
8859936,8.84940814,0.05702297,0.12523735,0.02584686,-0.09610574,-0.09043554,0.99125404,0.12271707,0.01401952,0.01216394,0.00131381,-0.04821791,-0.04525352,0.99781017,0.09625432,-0.09098159,3.13457417
8892756,8.88222789,0.04982848,0.09792497,-0.04676416,-0.09413993,-0.09044699,0.99144172,0.04628837,-0.00110575,0.01148796,0.00136384,-0.04723290,-0.04525605,0.99785718,0.09427955,-0.09097591,3.13456439
8925560,8.91503238,0.03916999,-0.14961868,-0.01585452,-0.09213101,-0.09048856,0.99162635,0.03597866,-0.00033175,-0.00261271,0.00141092,-0.04622630,-0.04527399,0.99790325,0.09226187,-0.09100064,3.13456106
8958456,8.94792842,0.02478101,0.08833231,-0.03690505,-0.09018442,-0.09022072,0.99182996,0.02670786,0.00208595,0.02208602,0.00145305,-0.04525037,-0.04513694,0.99795427,0.09030714,-0.09071424,3.13457894
8991296,8.98076820,0.04409954,0.12656967,-0.02118377,-0.09006253,-0.08823692,0.99201946,-0.00197849,-0.00160683,0.02238482,0.00141431,-0.04518398,-0.04414276,0.99800186,0.09018474,-0.08871332,3.13475275
9024152,9.01362419,0.04849617,-0.05848851,-0.00479632,-0.08809946,-0.08790783,0.99222526,0.02218148,0.00416759,-0.00492054,0.00145056,-0.04419955,-0.04397541,0.99805335,0.08821380,-0.08836594,3.13478326
9057000,9.04647159,0.02691271,0.01798622,-0.01518836,-0.08623351,-0.08726293,0.99244565,0.02617491,0.00938208,-0.00416440,0.00147915,-0.04326315,-0.04365004,0.99810848,0.08634076,-0.08770162,3.13483786
9089832,9.07930374,0.03050996,0.02451455,0.00213170,-0.08438749,-0.08656500,0.99266567,0.00137968,-0.00059320,0.02027375,0.00150481,-0.04233664,-0.04329830,0.99816360,0.08448797,-0.08698453,3.13489842
9122596,9.11206817,0.04543185,-0.09899082,0.00639510,-0.08238453,-0.08661850,0.99282932,0.06114430,-0.00346938,0.02255154,0.00154839,-0.04133356,-0.04332304,0.99820451,0.08247800,-0.08702377,3.13489723
9155396,9.14486789,0.06368453,0.13483000,-0.00199847,-0.08137348,-0.08492707,0.99305868,0.00105121,0.00289582,0.02671671,0.00153724,-0.04082298,-0.04247460,0.99826192,0.08146356,-0.08531311,3.13503384
9188148,9.17761993,0.08486831,-0.04383307,0.05622358,-0.08330506,-0.08444962,0.99293909,-0.03241759,0.00632462,0.01121128,0.00148178,-0.04178899,-0.04223756,0.99823207,0.08340173,-0.08484596,3.13508152
9220968,9.21043968,0.04756355,-0.06062021,0.02904441,-0.08130886,-0.08442604,0.99310665,0.05713893,0.00288306,-0.02460074,0.00152095,-0.04078905,-0.04222385,0.99827394,0.08139875,-0.08480813,3.13508987
9253760,9.24323177,0.02291577,0.00026646,0.01945176,-0.08312868,-0.08359930,0.99302606,-0.00451782,0.00205633,-0.00035030,0.00146415,-0.04169836,-0.04181160,0.99825391,0.08322471,-0.08398836,3.13516020
9286532,9.27600383,0.02464778,-0.15308270,0.05315927,-0.08114937,-0.08326006,0.99321794,0.02231148,0.00293780,0.01483870,0.00149305,-0.04070598,-0.04163997,0.99830188,0.08123873,-0.08363306,3.13520050
9319308,9.30877971,0.03210873,-0.08673354,0.03437366,-0.07918443,-0.08289923,0.99340667,0.03060045,0.00526251,0.00732571,0.00152338,-0.03972095,-0.04145755,0.99834909,0.07926744,-0.08325654,3.13523745
9352120,9.34159183,0.04276723,-0.03837059,0.03597244,-0.07719445,-0.08279140,0.99357252,0.02690148,-0.00021642,0.02205247,0.00155951,-0.03872411,-0.04140193,0.99839057,0.07727131,-0.08313492,3.13525319
9384968,9.37444019,0.04303369,-0.06981317,0.04956202,-0.07526216,-0.08332109,0.99367637,0.01471528,-0.00481368,0.00730020,0.00160527,-0.03775775,-0.04166591,0.99841651,0.07533341,-0.08365564,3.13522267
9417776,9.40724754,0.04196784,-0.01771975,0.08606738,-0.07332613,-0.08287352,0.99385881,0.02742769,0.00572509,0.01004744,0.00163005,-0.03678719,-0.04144052,0.99846220,0.07339200,-0.08319314,3.13527154
9450556,9.44002819,0.04156814,-0.00386371,0.07021286,-0.07134306,-0.08273238,0.99401454,0.02959501,0.00070113,0.01868075,0.00166281,-0.03579397,-0.04136868,0.99850101,0.07140374,-0.08303914,3.13529443
9483396,9.47286796,0.05196018,-0.08473506,0.06741500,-0.06937222,-0.08238462,0.99418315,0.01151089,0.00132993,0.01021141,0.00169138,-0.03480649,-0.04119344,0.99854326,0.06942799,-0.08267775,3.13533210
9516208,9.50568008,0.03783767,-0.13203215,0.08953140,-0.06763941,-0.08138109,0.99438524,0.03663355,0.02156664,-0.00146532,0.00170130,-0.03393665,-0.04069003,0.99859390,0.06769111,-0.08165863,3.13541889
9549004,9.53847599,0.05156049,0.00026646,0.10498622,-0.06585836,-0.08050495,0.99457588,0.03509664,0.01702838,0.00395924,0.00171407,-0.03304306,-0.04025051,0.99864158,0.06590607,-0.08076789,3.13549590
9581784,9.57125568,0.05169372,-0.12790198,0.10325421,-0.06385082,-0.08065399,0.99469461,0.02918284,-0.00333039,0.01311785,0.00174752,-0.03203845,-0.04032459,0.99867115,0.06389429,-0.08090717,3.13550591
9614648,9.60412025,0.04743032,-0.06794793,0.13149923,-0.06186004,-0.08045274,0.99483680,0.02670379,0.00183946,0.01175499,0.00177290,-0.03104148,-0.04022336,0.99870672,0.06189957,-0.08069468,3.13554263
9647444,9.63691616,0.05076110,-0.01065850,0.13749463,-0.05990349,-0.08008560,0.99498615,0.04183709,0.00708755,0.01087326,0.00179486,-0.03006136,-0.04003913,0.99874410,0.05993939,-0.08031601,3.13558936
9680300,9.66977214,0.02931087,-0.09699234,0.05942113,-0.05789728,-0.07999152,0.99511232,0.03665704,0.00064581,0.01489741,0.00182821,-0.02905733,-0.03999160,0.99877557,0.05792968,-0.08021193,3.13560652
9713148,9.70261955,0.03344104,-0.08113782,0.09232925,-0.05750010,-0.07803808,0.99529056,0.00110362,0.00723729,0.00812745,0.00179942,-0.02885429,-0.03901314,0.99882020,0.05753185,-0.07824725,3.13573694
9745988,9.73546028,0.04343338,-0.09539357,0.10938285,-0.05560908,-0.07737303,0.99545011,0.05512080,0.01975585,-0.00350672,0.00181703,-0.02790663,-0.03867990,0.99886016,0.05563778,-0.07757074,3.13579487
9778820,9.76829242,0.02757887,-0.01065850,0.07194488,-0.05367220,-0.07690758,0.99559221,0.06197299,0.01416344,0.01319689,0.00184194,-0.02693667,-0.03844663,0.99889564,0.05369802,-0.07709497,3.13583326
9811640,9.80111217,0.01718683,-0.03157581,0.00119908,-0.05167514,-0.07702723,0.99568881,0.05289585,-0.00353917,0.00602019,0.00188170,-0.02593805,-0.03850640,0.99891977,0.05169818,-0.07720698,3.13582801
9844484,9.83395576,0.02171669,-0.05808882,-0.00039969,-0.04967229,-0.07713103,0.99578275,0.05553167,-0.00367952,0.01105314,0.00192140,-0.02493659,-0.03855834,0.99894323,0.04969274,-0.07730334,3.13582372
9877292,9.86676406,0.02224962,-0.00732772,-0.04902909,-0.04767518,-0.07712402,0.99588088,0.07062440,-0.00051270,0.01168752,0.00196432,-0.02393803,-0.03855479,0.99896774,0.04769327,-0.07728877,3.13581562
9910128,9.89960002,0.02318224,0.03330781,-0.05502450,-0.04574099,-0.07666489,0.99600677,0.02718631,0.00586411,0.00960851,0.00200132,-0.02297019,-0.03832483,0.99899902,0.04575697,-0.07682079,3.13582730
9942920,9.93239212,0.02011792,-0.00879326,-0.03703828,-0.04377584,-0.07631580,0.99612216,0.01350240,0.00209705,0.00485438,0.00203830,-0.02198705,-0.03815016,0.99902801,0.04378984,-0.07646352,3.13583683
9975732,9.96520423,0.03170903,0.01811945,-0.02837825,-0.04178282,-0.07627583,0.99621067,0.00320861,-0.00087261,0.01233423,0.00207864,-0.02099061,-0.03813051,0.99905004,0.04179501,-0.07641686,3.13583350
10008508,9.99798011,0.04369984,-0.02411486,0.01891884,-0.04315595,-0.07769865,0.99604234,-0.00493975,-0.00530917,0.00469005,0.00206564,-0.02167972,-0.03884307,0.99900798,0.04316936,-0.07784972,3.13577580
10041404,10.03087615,0.02038438,-0.07114548,0.03570597,-0.04121070,-0.07721155,0.99616250,0.01655250,0.00494592,-0.01105511,0.00209477,-0.02070613,-0.03859953,0.99903793,0.04122239,-0.07735433,3.13580369
10074340,10.06381225,0.00053292,-0.00026646,0.01878561,-0.03926025,-0.07679862,0.99627313,0.04414306,0.00917167,0.00494754,0.00212658,-0.01973021,-0.03839323,0.99906549,0.03927036,-0.07693377,3.13582396
10107308,10.09677982,0.01811945,-0.00799387,0.01478867,-0.03730100,-0.07641569,0.99637775,0.03315061,0.00463834,0.02754802,0.00215918,-0.01875002,-0.03820206,0.99909162,0.03730967,-0.07654365,3.13584160
10140228,10.12969970,0.03530628,0.01292343,-0.00133231,-0.03530811,-0.07632634,0.99645748,0.03823780,0.00088688,0.01086676,0.00219691,-0.01775366,-0.03815807,0.99911155,0.03531546,-0.07644843,3.13584423
10173184,10.16265583,0.04569831,0.01252374,-0.00399694,-0.03331560,-0.07621994,0.99653415,0.03478044,0.00151290,0.00395417,0.00223468,-0.01675753,-0.03810565,0.99913063,0.03332177,-0.07633642,3.13584685
10206132,10.19560432,0.03637212,0.03304135,-0.03224196,-0.03134701,-0.07591620,0.99662094,0.03598568,0.00535956,0.00240254,0.00227271,-0.01577313,-0.03795443,0.99915218,0.03135215,-0.07602678,3.13585090
10239080,10.22855186,0.03877029,0.05728943,-0.00999234,-0.03075039,-0.07401740,0.99678239,0.00145351,0.00468145,0.00883287,0.00227059,-0.01547171,-0.03700344,0.99919261,0.03075525,-0.07412030,3.13590741
10272040,10.26151180,0.03024349,0.01891884,-0.01425574,-0.02881954,-0.07452106,0.99680271,0.01295039,-0.00360394,0.00246489,0.00231171,-0.01450753,-0.03725689,0.99919757,0.02882353,-0.07462129,3.13588953
10305024,10.29449558,0.04769678,0.01452220,0.00892649,-0.02792352,-0.07629278,0.99669418,-0.00088507,-0.00109980,0.02161634,0.00234062,-0.01406271,-0.03814511,0.99917039,0.02792716,-0.07639685,3.13584017
10337980,10.32745170,0.05076110,0.00319755,0.01225727,-0.02602629,-0.07691452,0.99669780,0.01650480,-0.00487260,-0.00719589,0.00238021,-0.01311555,-0.03845791,0.99917125,0.02602923,-0.07701670,3.13582539
10370884,10.36035633,0.00719449,0.01958499,0.01798622,-0.02405740,-0.07659983,0.99677152,0.01966287,0.00457834,-0.01923245,0.00241473,-0.01213102,-0.03830166,0.99918956,0.02405972,-0.07669718,3.13583612
10403812,10.39328384,-0.01172435,0.02171669,0.01425574,-0.02207080,-0.07642722,0.99683084,0.01279345,-0.00023293,0.01854998,0.00245074,-0.01113792,-0.03821672,0.99920444,0.02207259,-0.07652050,3.13584232
10436776,10.42624759,0.02171669,0.00559571,0.00532925,-0.02010565,-0.07678905,0.99684438,0.01571111,-0.00524221,0.02879035,0.00248987,-0.01015648,-0.03839966,0.99920759,0.02010700,-0.07688030,3.13583564
10469772,10.45924377,0.04503216,0.01225727,-0.00306432,-0.01826978,-0.07756897,0.99681940,0.01241041,-0.00665955,0.01538759,0.00252956,-0.00924040,-0.03879209,0.99920129,0.01827080,-0.07765997,3.13581967
10502772,10.49224376,0.04503216,0.00413017,0.00652833,-0.01941229,-0.07592564,0.99692430,-0.00378107,0.00512486,0.00307572,0.00249948,-0.00980862,-0.03796763,0.99922761,0.01941351,-0.07601315,3.13585162
10535704,10.52517604,0.01905207,0.02411486,0.00692802,-0.01768506,-0.07493295,0.99703159,0.00523389,0.00339974,-0.00606483,0.00252702,-0.00894389,-0.03747181,0.99925441,0.01768599,-0.07501502,3.13587117
10568664,10.55813598,0.01478867,0.04409954,0.01039204,-0.01859418,-0.07670288,0.99688034,-0.00191363,-0.00459595,0.01996535,0.00251721,-0.00940101,-0.03835783,0.99921655,0.01859526,-0.07679161,3.13583993
10601624,10.59109592,0.04170137,-0.00852680,0.01159112,-0.01660893,-0.07694759,0.99689655,0.00244877,-0.00288640,0.03240037,0.00255540,-0.00840936,-0.03848230,0.99922046,0.01660970,-0.07703440,3.13583779
10634588,10.62405967,0.05609035,0.01825268,0.00652833,-0.01464091,-0.07660967,0.99695348,0.01049052,0.00165850,0.00133753,0.00259148,-0.00742543,-0.03831491,0.99923467,0.01464144,-0.07669306,3.13584399
10667556,10.65702819,0.02717917,0.01665390,-0.00066616,-0.01463790,-0.07461642,0.99710474,0.00023360,0.01089571,-0.01297384,0.00258467,-0.00742080,-0.03731617,0.99927253,0.01463842,-0.07469385,3.13587260
10700528,10.68999958,0.00146554,0.01825268,0.01505513,-0.01534682,-0.07275335,0.99723186,-0.00345201,0.00854436,0.00569785,0.00256343,-0.00777208,-0.03638206,0.99930438,0.01534742,-0.07282629,3.13590312
10733456,10.72292804,0.02704594,0.01985145,0.00852680,-0.01722953,-0.07342379,0.99715175,-0.00327829,-0.00250395,0.01944983,0.00253120,-0.00871393,-0.03671611,0.99928436,0.01723038,-0.07350087,3.13589310
10766424,10.75589561,0.04822971,0.03837059,0.01505513,-0.01528027,-0.07383191,0.99715347,0.00160840,-0.00160755,0.01627427,0.00256773,-0.00774048,-0.03692248,0.99928474,0.01528087,-0.07390780,3.13588857
10799416,10.78888797,0.04409954,-0.00679479,0.00253139,-0.01612660,-0.07202041,0.99727268,-0.00267223,0.00683486,-0.01045626,0.00254508,-0.00816055,-0.03601412,0.99931468,0.01612731,-0.07209222,3.13591742
10832452,10.82192420,0.02411486,0.04223430,0.01212404,-0.01806592,-0.07252439,0.99720296,-0.00268603,-0.00022952,-0.00721270,0.00251136,-0.00913045,-0.03626474,0.99929733,0.01806690,-0.07259998,3.13591027
10865468,10.85494041,0.02145023,-0.01172435,0.01665390,-0.01775509,-0.07055554,0.99734954,-0.00031132,-0.00171009,0.00606841,0.00250669,-0.00897195,-0.03527877,0.99933395,0.01775603,-0.07062537,3.13594865
10898440,10.88791179,0.02704594,0.02264931,0.00972588,-0.01654937,-0.07213794,0.99725704,0.00605132,-0.00916089,0.01250857,0.00253434,-0.00837187,-0.03607261,0.99931068,0.01655013,-0.07221058,3.13592267
10931400,10.92087173,0.02971057,0.00679479,0.01265697,-0.01832113,-0.07120376,0.99729328,-0.00145426,0.00040298,0.00441569,0.00249749,-0.00925578,-0.03560298,0.99931993,0.01832216,-0.07127607,3.13594102
10964376,10.95384788,0.02931087,0.00692802,0.01838591,-0.01679006,-0.06992425,0.99741067,0.00189748,0.00083245,0.01333147,0.00251737,-0.00848857,-0.03496351,0.99934921,0.01679086,-0.06999126,3.13596677
10997364,10.98683643,0.02917764,0.02278254,0.00866003,-0.01676280,-0.07190894,0.99726991,-0.00008290,-0.00157739,0.00614804,0.00252550,-0.00847803,-0.03595772,0.99931392,0.01676359,-0.07198121,3.13593459
11030332,11.01980400,0.03370750,-0.00706126,0.02238285,-0.01654927,-0.06992485,0.99741497,0.00043599,0.00449516,0.00551468,0.00251921,-0.00836815,-0.03496405,0.99935035,0.01655003,-0.06999155,3.13597154
11063284,11.05275630,0.03024349,0.03157581,0.01452220,-0.01484356,-0.07095242,0.99736890,0.00092755,-0.00155735,0.01239669,0.00255223,-0.00751731,-0.03548048,0.99933872,0.01484411,-0.07101994,3.13595747
11096212,11.08568382,0.02051761,-0.01172435,0.00999234,-0.01284425,-0.07085912,0.99740352,0.00918214,0.00054662,-0.00179809,0.00258651,-0.00651803,-0.03543582,0.99934730,0.01284460,-0.07092442,3.13596057
11129212,11.11868381,0.01785299,0.03623890,0.00506279,-0.01484792,-0.07094758,0.99736919,-0.00346262,-0.00107391,0.01288474,0.00255098,-0.00751944,-0.03547806,0.99933872,0.01484848,-0.07101509,3.13595986
11162244,11.15171623,0.03597244,0.00359724,0.01825268,-0.01651856,-0.06984286,0.99742107,-0.00105956,-0.00095792,0.02040118,0.00251580,-0.00835256,-0.03492305,0.99935188,0.01651932,-0.06990933,3.13598012
11195252,11.18472385,0.03384073,0.01305666,0.00532925,-0.01505648,-0.07119519,0.99734869,0.00675570,-0.00644153,0.00167477,0.00254645,-0.00762398,-0.03560190,0.99933366,0.01505705,-0.07126357,3.13595962
11228188,11.21765995,0.01318989,-0.00719449,0.00452986,-0.01644940,-0.06976324,0.99742765,0.00058026,-0.00006098,-0.00621671,0.00251591,-0.00831784,-0.03488324,0.99935350,0.01645015,-0.06982943,3.13598299
11261188,11.25065994,0.00546248,0.04503216,0.01239050,-0.01689265,-0.07170351,0.99728279,-0.00117375,-0.00520079,0.01931882,0.00251534,-0.00854235,-0.03585474,0.99931726,0.01689346,-0.07177536,3.13595199
11294196,11.28366756,0.03224196,0.00786064,0.00306432,-0.01754613,-0.07357693,0.99713487,-0.00271754,-0.00845431,0.02605850,0.00251124,-0.00887185,-0.03679267,0.99928016,0.01754704,-0.07365488,3.13592004
11327116,11.31658840,0.04063552,0.02238285,0.00000000,-0.01953695,-0.07378550,0.99708261,-0.00731852,-0.00116567,0.00487053,0.00247578,-0.00986705,-0.03689535,0.99926729,0.01953820,-0.07386675,3.13591551
11360052,11.34952354,0.02744564,0.00079939,0.01265697,-0.02069430,-0.07215499,0.99717864,-0.00127836,0.00208662,-0.00279391,0.00244529,-0.01044277,-0.03607752,0.99929141,0.02069578,-0.07223325,3.13595080
11393004,11.38247585,0.01332312,0.04356661,0.01132465,-0.01878357,-0.07159826,0.99725637,0.01536560,0.00397131,0.00762641,0.00247640,-0.00948698,-0.03580031,0.99931068,0.01878467,-0.07167225,3.13596296
11425928,11.41539955,0.01665390,0.02291577,0.00466309,-0.02078570,-0.07152306,0.99722223,-0.00655805,-0.00123085,0.02011174,0.00243993,-0.01048742,-0.03576089,0.99930229,0.02078720,-0.07159968,3.13596487
11458888,11.44836044,0.03570597,0.01292343,0.01891884,-0.01977210,-0.07323313,0.99711856,0.00121742,-0.00269461,0.00581110,0.00246538,-0.00998356,-0.03661845,0.99927625,0.01977340,-0.07331313,3.13593316
11491868,11.48134040,0.02105054,0.02637979,0.01225727,-0.01777765,-0.07325264,0.99715471,0.01045342,0.00025459,-0.00496721,0.00250105,-0.00898686,-0.03663002,0.99928522,0.01777858,-0.07332993,3.13593482
11524840,11.51431179,0.01971822,0.03344104,0.00626187,-0.01950864,-0.07223896,0.99719657,-0.00466128,0.00143818,0.01549870,0.00246464,-0.00985028,-0.03612063,0.99929590,0.01950988,-0.07231573,3.13595414
11557800,11.54727172,0.02358193,0.06168606,0.01292343,-0.01752261,-0.07233712,0.99722595,0.01190737,-0.00066093,0.00082093,0.00250038,-0.00885792,-0.03617162,0.99930305,0.01752351,-0.07241152,3.13595366
11590768,11.58024024,0.02571363,0.03743798,-0.00359724,-0.01916405,-0.07347331,0.99711284,-0.00305275,-0.00294271,0.01314104,0.00247620,-0.00968002,-0.03673933,0.99927482,0.01916523,-0.07355312,3.13593149
11623772,11.61324405,0.01732006,0.03477335,0.00159877,-0.01757930,-0.07467937,0.99705257,0.00097774,-0.00027180,-0.00535339,0.00251119,-0.00889001,-0.03734500,0.99925975,0.01758020,-0.07476055,3.13590908
11656792,11.64626407,-0.00386371,0.06515007,-0.01145789,-0.01956031,-0.07501491,0.99699058,-0.00192406,-0.00018041,-0.00211751,0.00247700,-0.00988054,-0.03751132,0.99924430,0.01956156,-0.07509984,3.13590002
11689804,11.67927646,-0.00093262,0.02637979,-0.01572129,-0.01759299,-0.07534984,0.99700183,0.01026877,-0.00350758,0.02252943,0.00251712,-0.00889804,-0.03768090,0.99924697,0.01759390,-0.07543304,3.13589072
11722824,11.71229553,0.02424809,0.10192190,-0.03890352,-0.01761971,-0.07733404,0.99684915,-0.00044669,-0.00665034,0.02463520,0.00252930,-0.00891473,-0.03867507,0.99920864,0.01762063,-0.07742339,3.13584756
11755828,11.74530029,0.04716386,0.09246248,-0.03570597,-0.01962639,-0.07750052,0.99679889,-0.01528572,-0.00184518,0.00613081,0.00249496,-0.00991786,-0.03875667,0.99919624,0.01962765,-0.07759331,3.13583683
11788860,11.77833175,0.02198316,0.10818377,-0.03517305,-0.02140136,-0.07654213,0.99683666,-0.00984865,0.00671791,-0.01514721,0.00245973,-0.01080340,-0.03827489,0.99920578,0.02140299,-0.07663466,3.13584876
11821852,11.81132411,0.01132465,0.12830169,-0.01865237,-0.02331815,-0.07716751,0.99674549,-0.02746310,-0.01023483,0.01497322,0.00242868,-0.01176240,-0.03858671,0.99918308,0.02332026,-0.07726535,3.13582992
11854820,11.84429168,0.02278254,0.13962633,-0.01971822,-0.02534070,-0.07718949,0.99669437,-0.01250109,-0.00142380,0.01600099,0.00239251,-0.01277329,-0.03859621,0.99917039,0.02534342,-0.07729122,3.13582372
11887788,11.87726020,0.03064318,0.18079479,-0.00439663,-0.02736699,-0.07729732,0.99663238,-0.03195918,-0.00278080,0.01166844,0.00235575,-0.01378619,-0.03864884,0.99915494,0.02737040,-0.07740355,3.13581728
11920760,11.91023159,0.03437366,0.12110720,0.02145023,-0.02926663,-0.07796183,0.99652643,-0.03616305,-0.01334677,0.00420600,0.00232247,-0.01473669,-0.03898066,0.99912843,0.02927082,-0.07807455,3.13580036
11953752,11.94322395,0.02864472,0.21010568,0.01119142,-0.03125295,-0.07838311,0.99643297,-0.00390330,-0.00145088,0.00796157,0.00228731,-0.01573019,-0.03919064,0.99910516,0.03125805,-0.07850205,3.13578629
11986736,11.97620773,0.01758652,0.17000307,-0.00319755,-0.03321428,-0.07786322,0.99641056,-0.02342634,0.00657416,-0.00373477,0.00224630,-0.01670963,-0.03892912,0.99909963,0.03322039,-0.07798524,3.13579988
12019680,12.00915241,0.00386371,0.19198621,0.04343338,-0.03517882,-0.07836297,0.99630403,-0.04782899,-0.01318976,0.00857878,0.00220953,-0.01769238,-0.03917870,0.99907312,0.03518608,-0.07849209,3.13578772
12052608,12.04207992,0.01132465,0.23875038,0.05235988,-0.03717516,-0.07876109,0.99619979,-0.03948499,-0.00937368,0.01576305,0.00217104,-0.01869088,-0.03937748,0.99904708,0.03718373,-0.07889742,3.13577866
12085592,12.07506370,0.03224196,0.23155589,0.00812710,-0.03568194,-0.07749062,0.99635429,0.02078936,0.01743202,-0.00465506,0.00218962,-0.01794220,-0.03874144,0.99908571,0.03568952,-0.07761791,3.13582348
12118568,12.10803985,-0.00293109,0.20104594,-0.05715620,-0.03758574,-0.07678147,0.99633903,-0.05201387,0.02160569,-0.02050895,0.00215286,-0.01889285,-0.03838530,0.99908199,0.03759460,-0.07691157,3.13583636
12151556,12.14102840,-0.01971822,0.07634150,-0.00919296,-0.03957319,-0.07707247,0.99623947,-0.08298541,-0.01325957,0.01230550,0.00211853,-0.01988698,-0.03853044,0.99905700,0.03958353,-0.07720960,3.13582253
12184536,12.17400836,0.00373047,0.35013172,0.00972588,-0.04147535,-0.07782960,0.99610338,-0.05154222,-0.02348875,0.03319347,0.00209079,-0.02083939,-0.03890924,0.99902315,0.04148726,-0.07797564,3.13578844
12217452,12.20692443,0.05435834,0.15015159,-0.00479632,-0.04349767,-0.07783054,0.99601707,-0.09737147,-0.00200345,0.01496923,0.00205299,-0.02185053,-0.03890925,0.99900159,0.04351140,-0.07798329,3.13578486
12250428,12.23989963,0.03157581,-0.10072281,0.05355895,-0.04547075,-0.07796790,0.99591817,-0.13519330,-0.00821374,-0.02716822,0.00201076,-0.02283711,-0.03897790,0.99897689,0.04548644,-0.07812809,3.13578891
12283416,12.27288818,-0.01132465,0.28764627,0.11764318,-0.04749618,-0.07824806,0.99580163,-0.06114639,-0.00866601,-0.00336999,0.00196612,-0.02385010,-0.03911829,0.99894790,0.04751407,-0.07841682,3.13579201
12316392,12.30586433,0.01958499,0.21596784,0.09859111,-0.04947467,-0.07776273,0.99574337,-0.07821088,0.01550687,0.04087776,0.00191462,-0.02483826,-0.03887527,0.99893341,0.04949488,-0.07793697,3.13582921
12349308,12.33878040,0.05795559,-0.00293109,0.07567535,-0.05132827,-0.07700132,0.99570856,-0.05072251,0.02011655,0.00331491,0.00186269,-0.02576354,-0.03849406,0.99892473,0.05135085,-0.07717957,3.13588023
12382220,12.37169170,0.01665390,0.22675957,0.06941348,-0.05329267,-0.07645845,0.99564743,-0.02165850,0.01054048,-0.04935837,0.00181341,-0.02674481,-0.03822240,0.99890956,0.05331793,-0.07664228,3.13591718
12415116,12.40458774,-0.04609801,0.36691884,0.04849617,-0.05535082,-0.07640881,0.99553890,-0.09845777,0.00292248,-0.00628114,0.00177122,-0.02777410,-0.03819790,0.99888248,0.05537912,-0.07660103,3.13592362
12448064,12.43753623,-0.04143491,-0.02158346,-0.01279020,-0.05732930,-0.07618796,0.99544353,-0.06034648,0.00465475,0.02482009,0.00173116,-0.02876341,-0.03808765,0.99885864,0.05736076,-0.07638776,3.13593387
12481088,12.47056007,-0.01692037,-0.13509647,-0.03490658,-0.05923923,-0.07665588,0.99529590,-0.09530179,-0.02368592,0.00543654,0.00170342,-0.02971991,-0.03832247,0.99882173,0.05927394,-0.07686644,3.13590192
12514060,12.50353240,-0.00226493,0.21983153,0.02358193,-0.06120068,-0.07716007,0.99513845,-0.07942432,-0.02147274,0.00412911,0.00167256,-0.03070224,-0.03857565,0.99878244,0.06123896,-0.07738219,3.13587212
12546956,12.53642845,0.02997703,0.00532925,-0.01492190,-0.06316263,-0.07748630,0.99499034,-0.09040183,-0.01650784,0.01160145,0.00164104,-0.03168464,-0.03873976,0.99874534,0.06320471,-0.07771958,3.13584828
12579864,12.56933593,0.04343338,-0.22649309,-0.04076876,-0.06506781,-0.07788830,0.99483623,-0.07384821,-0.01561756,-0.00460190,0.00161273,-0.03263891,-0.03894187,0.99870691,0.06511383,-0.07813321,3.13581705
12612848,12.60231971,0.02438132,0.36505360,-0.03384073,-0.06706732,-0.07832736,0.99466905,-0.04474909,-0.00931913,-0.01859486,0.00158640,-0.03364069,-0.03916259,0.99866504,0.06711771,-0.07858498,3.13577604
12645848,12.63531970,-0.00639510,0.15961103,-0.04343338,-0.06908495,-0.07834308,0.99452991,-0.08154982,-0.00100263,-0.00014514,0.00155186,-0.03465072,-0.03917141,0.99863033,0.06914002,-0.07861164,3.13576459
12678784,12.66825580,0.00000000,-0.03224196,-0.02291577,-0.07106468,-0.07845735,0.99438123,-0.08591775,-0.00699187,0.02124375,0.00151673,-0.03564198,-0.03922981,0.99859313,0.07112464,-0.07873756,3.13575220
12711716,12.70118808,0.03956968,0.12430475,-0.00692802,-0.07305693,-0.07870180,0.99421730,-0.09295871,-0.01382750,0.02067530,0.00148346,-0.03663989,-0.03935352,0.99855213,0.07312209,-0.07899483,3.13573050
12744600,12.73407173,0.08779939,-0.00119908,0.01385605,-0.07504094,-0.07880606,0.99406127,-0.10684384,-0.00713144,0.00056762,0.00144560,-0.03763339,-0.03940722,0.99851312,0.07511157,-0.07911140,3.13572311
12777528,12.76700019,0.06608270,-0.16893720,0.05902143,-0.07700046,-0.07881722,0.99391069,-0.11416165,0.00044808,-0.03199661,0.00140133,-0.03861433,-0.03941459,0.99847545,0.07707676,-0.07913451,3.13573288
12810432,12.79990386,0.01985145,0.01478867,0.09965697,-0.07896751,-0.07910155,0.99373350,-0.06922585,-0.00878908,-0.02718079,0.00135953,-0.03959966,-0.03955900,0.99843111,0.07904983,-0.07943287,3.13572645
12843396,12.83286762,-0.01132465,0.12523735,0.10871670,-0.08097452,-0.07895748,0.99358377,-0.07893759,0.00522701,0.00031275,0.00130823,-0.04060414,-0.03948904,0.99839382,0.08106328,-0.07930071,3.13575434
12876384,12.86585617,-0.01545482,-0.06634916,0.09073048,-0.08291847,-0.07857560,0.99345350,-0.05135887,0.00923965,0.00532579,0.00125365,-0.04157664,-0.03930008,0.99836120,0.08301380,-0.07892906,3.13580155
12909320,12.89879226,-0.00852680,-0.09073048,0.06768147,-0.08476990,-0.07923123,0.99324522,-0.02558166,-0.01012424,0.02042663,0.00122417,-0.04250534,-0.03963059,0.99830904,0.08487178,-0.07960151,3.13575839
12942292,12.93176364,0.01505513,0.15894486,0.00786064,-0.08671386,-0.07972228,0.99303808,-0.01460450,-0.00475038,0.01550686,0.00119648,-0.04348042,-0.03987861,0.99825725,0.08682292,-0.08010938,3.13571381
12975204,12.96467590,0.02344870,0.00186524,0.00239816,-0.08861324,-0.08026947,0.99282627,-0.07959965,-0.02373444,0.00253504,0.00117030,-0.04443341,-0.04015484,0.99820423,0.08872964,-0.08067399,3.13566446
13008132,12.99760437,0.01092496,-0.08340275,0.00452986,-0.09023486,-0.08136815,0.99259099,-0.04648390,-0.03142483,0.00106138,0.00116112,-0.04524861,-0.04070703,0.99814529,0.09035776,-0.08179262,3.13556623
13041096,13.03056812,0.00226493,-0.00199847,0.01358959,-0.09215406,-0.08184019,0.99237537,-0.07019946,-0.01752506,-0.00384998,0.00113148,-0.04621156,-0.04094595,0.99809131,0.09228503,-0.08228278,3.13552379
13074072,13.06354427,-0.00519602,-0.09006432,0.03970291,-0.09412060,-0.08173752,0.99219951,-0.06945362,0.00288010,0.00218523,0.00108476,-0.04719682,-0.04089742,0.99804735,0.09426014,-0.08219453,3.13554000
13106996,13.09646797,0.01239050,-0.08113782,0.06594946,-0.09608341,-0.08154603,0.99202709,-0.04698300,0.00244446,0.01822680,0.00103380,-0.04818004,-0.04080464,0.99800415,0.09623188,-0.08201701,3.13556933
13139920,13.12939167,0.02677948,0.07194488,0.05009494,-0.09807244,-0.08165711,0.99182348,-0.04426155,-0.00330383,0.00451440,0.00099209,-0.04917740,-0.04086340,0.99795331,0.09823034,-0.08214502,3.13556432
13172852,13.16232395,0.01412251,-0.05995406,0.06435069,-0.09999402,-0.08206388,0.99159784,-0.05894152,-0.01193026,-0.01674432,0.00095701,-0.05014178,-0.04107033,0.99789676,0.10016144,-0.08257106,3.13553357
13205844,13.19531631,-0.00373047,-0.06328484,0.06435069,-0.10066486,-0.08391709,0.99137487,-0.00944257,-0.02350479,0.00862509,0.00098341,-0.05048273,-0.04199958,0.99784088,0.10083566,-0.08444586,3.13535785
13238848,13.22832012,0.03050996,0.00972588,0.03450689,-0.10216906,-0.08517884,0.99111328,-0.01770399,-0.01491883,0.02646482,0.00098092,-0.05124034,-0.04263400,0.99777526,0.10234768,-0.08573191,3.13523268
13271776,13.26124763,0.04449923,-0.05635682,0.03170903,-0.10388771,-0.08610778,0.99085426,-0.02208886,-0.01228089,0.00670433,0.00096525,-0.05210475,-0.04310228,0.99771041,0.10407552,-0.08668479,3.13513994
13304716,13.29418754,0.02624655,0.00879326,0.02637979,-0.10577129,-0.08668138,0.99060506,-0.01629903,-0.00462721,-0.00940388,0.00093743,-0.05305109,-0.04339302,0.99764804,0.10596952,-0.08728116,3.13508152
13337640,13.32711219,0.02145023,0.02131700,0.02984380,-0.10775197,-0.08657855,0.99040050,-0.02213084,-0.00106794,0.02131820,0.00088939,-0.05404441,-0.04334537,0.99759683,0.10796159,-0.08719604,3.13509511
13370580,13.36005210,0.04236753,0.01398928,0.00932619,-0.10973008,-0.08660027,0.99018154,-0.02747695,-0.00202278,0.01592201,0.00084681,-0.05503704,-0.04336010,0.99754199,0.10995150,-0.08723702,3.13509106
13403508,13.39297962,0.04156814,0.03090965,0.02198316,-0.11165922,-0.08700952,0.98993024,-0.03018648,-0.00674048,-0.00091660,0.00081487,-0.05600630,-0.04356895,0.99747905,0.11189255,-0.08766931,3.13504576
13436440,13.42591190,0.02091731,0.01745329,0.00692802,-0.11332430,-0.08804519,0.98964920,-0.02217375,-0.01400559,0.00400317,0.00080717,-0.05684504,-0.04409097,0.99740858,0.11356829,-0.08873247,3.13492679
13469404,13.45887565,0.03117611,-0.00439663,0.00719449,-0.11528728,-0.08820556,0.98940830,-0.02265219,-0.00334718,0.01547456,0.00076807,-0.05783091,-0.04417550,0.99734821,0.11554419,-0.08891475,3.13490653
13502352,13.49182415,0.04982848,0.00492956,-0.00013323,-0.11719551,-0.08866617,0.98914260,-0.00438653,-0.00264242,0.02550584,0.00073964,-0.05879041,-0.04441032,0.99728164,0.11746548,-0.08940049,3.13484907
13535320,13.52479171,0.07474272,0.00532925,-0.00959265,-0.11894097,-0.08769121,0.98902139,-0.00972114,0.00370683,0.01000208,0.00067383,-0.05966408,-0.04392613,0.99725131,0.11922322,-0.08843338,3.13495993
13568292,13.55776405,0.06408423,0.03317458,-0.00839357,-0.12077250,-0.08689296,0.98886985,-0.01350484,0.00730311,-0.01181912,0.00061139,-0.06058168,-0.04353074,0.99721345,0.12106804,-0.08764585,3.13505101
13601268,13.59074020,0.00559571,0.02797856,-0.00559571,-0.12274194,-0.08669423,0.98864488,-0.02032446,0.00368641,-0.01891834,0.00056324,-0.06157048,-0.04343591,0.99715700,0.12305225,-0.08746622,3.13507127
13634240,13.62371158,-0.00159877,0.01478867,-0.00186524,-0.12464623,-0.08613616,0.98845491,-0.01597878,0.00068694,0.03107631,0.00050477,-0.06252564,-0.04316128,0.99710931,0.12497131,-0.08692264,3.13513827
13667212,13.65668392,0.04889586,0.00959265,-0.00359724,-0.12646056,-0.08686303,0.98816118,-0.01416443,-0.00713111,0.03674113,0.00048922,-0.06343963,-0.04352951,0.99703578,0.12680007,-0.08767833,3.13504147
13700160,13.68963241,0.06022052,0.01532159,0.00586217,-0.12843122,-0.08681803,0.98791055,-0.01439103,0.00039224,-0.00353557,0.00044512,-0.06443003,-0.04351205,0.99697284,0.12878701,-0.08765525,3.13504385
13733116,13.72258758,0.02944411,0.02731240,0.02145023,-0.13021124,-0.08591688,0.98775653,-0.00968133,0.00608289,-0.00875258,0.00037599,-0.06532207,-0.04306590,0.99693431,0.13058207,-0.08676345,3.13516187
13766152,13.75562381,0.00279786,0.03130934,0.02011792,-0.13186142,-0.08479055,0.98763475,0.00002548,-0.00017039,0.00089061,0.00030226,-0.06614837,-0.04250689,0.99690380,0.13224658,-0.08564212,3.13531160
13799128,13.78859996,-0.00386371,0.03250842,0.01145789,-0.13127272,-0.08669668,0.98754825,-0.00105150,-0.00241466,0.01123100,0.00037705,-0.06585807,-0.04345900,0.99688224,0.13165266,-0.08756531,3.13506007
13832064,13.82153606,0.01825268,0.01665390,0.02957734,-0.13322418,-0.08691108,0.98726768,-0.02546722,-0.00512993,0.02811313,0.00033948,-0.06683999,-0.04357176,0.99681177,0.13362147,-0.08780557,3.13503265
13865040,13.85451221,0.04423277,0.00999234,0.03637212,-0.13518668,-0.08698864,0.98699417,-0.01105355,-0.00261097,0.02472455,0.00029660,-0.06782718,-0.04361625,0.99674320,0.13560187,-0.08790778,3.13502430
13898036,13.88750839,0.04050230,0.02238285,0.04183461,-0.13713903,-0.08668401,0.98675165,-0.00202112,0.00196721,-0.01580435,0.00024077,-0.06880826,-0.04346966,0.99668235,0.13757258,-0.08762291,3.13506889
13931040,13.92051219,0.00293109,0.01345635,0.04396631,-0.13885071,-0.08566499,0.98660097,0.00066713,0.00216890,-0.01516545,0.00016475,-0.06966620,-0.04296519,0.99664459,0.13930082,-0.08661119,3.13521599
13964008,13.95347976,0.00572894,0.01345635,0.04756355,-0.13843147,-0.08373402,0.98682565,-0.00121696,0.00536488,0.02049858,0.00010271,-0.06944918,-0.04199843,0.99670085,0.13887749,-0.08464913,3.13549566
13996952,13.98642444,0.03157581,0.00413017,0.04663093,-0.13672306,-0.08474262,0.98697757,0.00830510,-0.00827496,0.02083492,0.00017006,-0.06859245,-0.04249823,0.99673900,0.13715271,-0.08565067,3.13536500
14029864,14.01933574,0.03490658,0.00599541,0.02145023,-0.13496770,-0.08566426,0.98713979,0.01143256,-0.00686505,0.00626844,0.00023755,-0.06771212,-0.04295436,0.99677963,0.13538091,-0.08656340,3.13524389
14062812,14.05228424,0.00119908,-0.05049464,0.03144257,-0.13679256,-0.08490849,0.98695383,-0.01848087,0.00873662,-0.00990307,0.00016965,-0.06862771,-0.04258172,0.99673309,0.13722286,-0.08581954,3.13535118
14095844,14.08531570,-0.00199847,-0.04583154,0.00786064,-0.13482476,-0.08483437,0.98723087,0.02691461,-0.00110313,0.03059137,0.00020797,-0.06763750,-0.04253913,0.99680252,0.13523663,-0.08572106,3.13536667
14128876,14.11834812,0.03810414,0.02478101,-0.01465544,-0.13306504,-0.08574339,0.98739137,0.00537950,-0.00898317,0.04044068,0.00027810,-0.06675524,-0.04298886,0.99684276,0.13346090,-0.08662101,3.13524222
14161844,14.15131568,0.05196018,-0.04836294,0.04036906,-0.13491530,-0.08504539,0.98720026,-0.00155930,0.00154930,-0.00746393,0.00021169,-0.06768362,-0.04264505,0.99679479,0.13532803,-0.08593588,3.13534069
14194824,14.18429565,0.01878561,-0.09033078,0.03823736,-0.13453317,-0.08309906,0.98741855,0.00684764,0.02450532,-0.01598299,0.00015037,-0.06748546,-0.04167066,0.99684963,0.13494234,-0.08396005,3.13561415
14227804,14.21727561,-0.00266462,-0.02504747,-0.01332312,-0.13268425,-0.08245653,0.98772258,0.01842645,0.00457567,0.05475790,0.00016823,-0.06655368,-0.04134416,0.99692592,0.13307671,-0.08328834,3.13570189
14260868,14.25034046,0.01159112,-0.02331547,0.03690505,-0.13319857,-0.08435781,0.98749237,-0.01401822,-0.03746837,0.03008574,0.00021755,-0.06681776,-0.04229684,0.99686803,0.13359568,-0.08521939,3.13545179
14293832,14.28330421,0.04436600,-0.06235222,0.01971822,-0.13392896,-0.08617147,0.98723707,-0.01817064,-0.04029338,0.01227468,0.00026103,-0.06719050,-0.04320628,0.99680404,0.13433264,-0.08706482,3.13520860
14326812,14.31628417,0.06581623,-0.11098163,0.04436600,-0.13506722,-0.08773588,0.98694419,-0.01092887,-0.01382663,0.00841713,0.00028506,-0.06776771,-0.04399244,0.99673061,0.13548130,-0.08866340,3.13500142
14359804,14.34927558,0.05942113,-0.03543951,0.08859878,-0.13327124,-0.08858131,0.98711309,0.01754859,-0.00883080,0.00434202,0.00034602,-0.06686677,-0.04441082,0.99677295,0.13366894,-0.08949803,3.13490390
14392812,14.38228416,0.06035375,-0.05422511,0.04969525,-0.13137720,-0.08805399,0.98741407,0.03420923,0.00968485,-0.00108594,0.00036648,-0.06591250,-0.04414196,0.99684848,0.13175809,-0.08894110,3.13498568
14425812,14.41528415,0.01798622,-0.05942113,0.07620828,-0.13318170,-0.08877140,0.98710803,-0.01281439,-0.00619930,0.02876109,0.00034355,-0.06682186,-0.04450642,0.99677171,0.13357859,-0.08968952,3.13490009
14458780,14.44825172,0.10152221,-0.04170137,0.07847321,-0.13121018,-0.08879726,0.98736953,0.05625901,-0.00397619,0.03655624,0.00038248,-0.06583032,-0.04451423,0.99683723,0.13158963,-0.08969184,3.13491153
14491772,14.48124408,0.12430475,0.06395100,0.03743798,-0.12961043,-0.08767515,0.98768119,0.02511825,0.01711851,0.01085395,0.00037989,-0.06502247,-0.04394843,0.99691543,0.12997608,-0.08853660,3.13506484
14524724,14.51419639,0.09113017,-0.08433538,0.02145023,-0.12769222,-0.08720251,0.98797273,0.03320980,0.00785680,0.00665617,0.00040520,-0.06405673,-0.04370692,0.99698848,0.12804181,-0.08803594,3.13513231
14557708,14.54718017,0.08500154,-0.06688208,-0.01798622,-0.12572675,-0.08699014,0.98824367,0.04442793,0.00447060,0.00638527,0.00044356,-0.06306836,-0.04359541,0.99705648,0.12606037,-0.08779870,3.13515806
14590676,14.58014774,0.07154518,0.03304135,-0.03623890,-0.12427675,-0.08567295,0.98854188,0.02002870,0.01755771,-0.01149112,0.00043775,-0.06233600,-0.04293234,0.99713125,0.12459893,-0.08644995,3.13531851
14623600,14.61307239,0.04756355,0.08486831,-0.08646708,-0.12488175,-0.08376029,0.98862934,-0.01256943,0.03517631,0.01259136,0.00037367,-0.06263487,-0.04197624,0.99715309,0.12520868,-0.08452180,3.13554167
14656560,14.64603233,0.05102756,0.05822205,-0.02771210,-0.12626962,-0.08230478,0.98857564,-0.03510733,0.03225594,0.01996929,0.00030235,-0.06332843,-0.04125123,0.99713973,0.12660759,-0.08306436,3.13571786
14689532,14.67900371,0.05835528,0.08127105,0.03956968,-0.12708411,-0.08046204,0.98862285,-0.01109949,0.00502259,0.05458999,0.00022517,-0.06373267,-0.04033155,0.99715156,0.12742871,-0.08120900,3.13595700
14722536,14.71200847,0.13656201,-0.02997703,0.04556508,-0.12511252,-0.08039838,0.98887929,0.02916525,-0.00260943,0.04456800,0.00026030,-0.06274144,-0.04029505,0.99721584,0.12544128,-0.08112410,3.13597297
14755516,14.74498844,0.17306738,0.04942879,0.00039969,-0.12337923,-0.07947607,0.98917179,0.03426789,0.01795264,-0.02091002,0.00026849,-0.06186802,-0.03982939,0.99728918,0.12369444,-0.08017386,3.13608670
14788456,14.77792835,0.11671056,0.06115314,-0.00039969,-0.12464115,-0.07789646,0.98913898,-0.00206784,0.01515231,-0.05359215,0.00019616,-0.06249816,-0.03904212,0.99728097,0.12496619,-0.07858958,3.13627982
14821412,14.81088447,0.04250077,0.00359724,-0.00639510,-0.12419395,-0.07596200,0.98934574,0.00969199,0.01639169,-0.05331063,0.00014538,-0.06226859,-0.03807349,0.99733276,0.12451548,-0.07662969,3.13652181
14854332,14.84380435,-0.02971057,0.02611332,-0.02384839,-0.12615424,-0.07570213,0.98911781,-0.00055474,0.00270408,-0.02842450,0.00010197,-0.06325331,-0.03794799,0.99727573,0.12649128,-0.07638608,3.13654828
14887396,14.87686824,-0.05609035,0.02384839,-0.00452986,-0.12730531,-0.07730507,0.98884620,-0.00428648,-0.00521447,0.00651515,0.00013073,-0.06383598,-0.03875240,0.99720754,0.12765173,-0.07801836,3.13634157
14920432,14.90990352,-0.03530628,0.02331547,-0.00026646,-0.12545298,-0.07668635,0.98913116,0.00387095,0.00051448,0.02380830,0.00014671,-0.06290328,-0.03843854,0.99727907,0.12578440,-0.07737424,3.13642334
14953388,14.94285964,-0.01425574,-0.00293109,0.01092496,-0.12738372,-0.07703623,0.98885717,-0.02154206,-0.00572744,0.03140652,0.00011942,-0.06387466,-0.03861822,0.99721031,0.12773079,-0.07774728,3.13637852
14986424,14.97589588,0.01052527,-0.08113782,0.03903675,-0.12621747,-0.07544457,0.98912925,0.00707684,0.01318871,0.03699374,0.00008733,-0.06328426,-0.03781968,0.99727859,0.12655503,-0.07612631,3.13659167
15019408,15.00887966,0.01598775,-0.06235222,0.01052527,-0.12432876,-0.07488024,0.98941135,0.04571548,0.01311266,0.02157497,0.00010405,-0.06233351,-0.03753312,0.99734926,0.12465136,-0.07553761,3.13666772
15052352,15.04182434,0.03130934,0.09166309,-0.01185758,-0.12376587,-0.07298468,0.98962364,0.00755493,0.02440069,0.00207561,0.00005750,-0.06204621,-0.03658380,0.99740247,0.12408407,-0.07361665,3.13690209
15085264,15.07473564,0.00279786,0.00839357,0.00333078,-0.12461159,-0.07117140,0.98964948,-0.00527123,0.01453077,-0.00918072,-0.00001442,-0.06246714,-0.03567904,0.99740896,0.12493640,-0.07179217,3.13712906
15118188,15.10766029,0.00559571,0.03290811,0.00599541,-0.12284787,-0.07207601,0.98980464,0.00907834,-0.00653728,0.01483399,0.00004506,-0.06158273,-0.03612742,0.99744787,0.12315901,-0.07269011,3.13701844
15151108,15.14058017,0.00439663,0.02051761,-0.01425574,-0.12101303,-0.07282528,0.98997583,0.01237045,-0.00627628,0.01124489,0.00010264,-0.06066248,-0.03649800,0.99749078,0.12131037,-0.07343044,3.13692545
15184036,15.17350769,0.00746095,0.04556508,0.00679479,-0.12254178,-0.07406151,0.98969593,-0.02736057,-0.02188575,0.01030403,0.00011197,-0.06143351,-0.03711962,0.99742059,0.12285060,-0.07469337,3.13677215
15216972,15.20644378,0.01851914,-0.00173201,0.02757887,-0.12214032,-0.07601206,0.98959798,-0.00017413,-0.01065787,0.01650554,0.00017715,-0.06123636,-0.03809437,0.99739608,0.12244604,-0.07666051,3.13653588
15249972,15.23944377,0.02611332,0.00239816,-0.01678714,-0.12019648,-0.07637223,0.98980798,0.01033320,-0.00175277,-0.00079429,0.00022705,-0.06026067,-0.03827007,0.99744873,0.12048782,-0.07700606,3.13649034
15282944,15.27241611,-0.00253139,0.02051761,-0.00626187,-0.12109404,-0.07458423,0.98983478,-0.00244112,0.00549243,-0.00179768,0.00015658,-0.06070735,-0.03737771,0.99745540,0.12139199,-0.07520806,3.13670611
15315920,15.30539226,-0.01079173,0.04103522,-0.01891884,-0.12098301,-0.07260317,0.98999567,0.00159825,0.01352113,-0.00562066,0.00010037,-0.06064703,-0.03638662,0.99749574,0.12128014,-0.07320580,3.13694477
15348884,15.33835601,-0.00173201,0.02145023,-0.00133231,-0.12284458,-0.07190713,0.98981714,-0.01021206,0.00110635,0.02214575,0.00004562,-0.06158090,-0.03604263,0.99745092,0.12315570,-0.07251948,3.13702797
15381876,15.37134838,0.02038438,0.00399694,0.01025880,-0.12168376,-0.07353109,0.98984136,0.00351969,-0.01191813,0.02846915,0.00011584,-0.06100127,-0.03685219,0.99745712,0.12198609,-0.07414953,3.13683009
15414848,15.40431976,0.04330015,0.01638744,-0.00293109,-0.12081565,-0.07532362,0.98981294,0.00045432,-0.00035997,-0.00177580,0.00018735,-0.06056935,-0.03774672,0.99744997,0.12111152,-0.07595247,3.13660979
15447808,15.43727970,0.01705360,0.02358193,0.00146554,-0.12262271,-0.07608980,0.98953189,-0.01653744,-0.00691802,-0.00857490,0.00017667,-0.06147920,-0.03813396,0.99737949,0.12293214,-0.07674371,3.13651299
15480724,15.47019577,0.01305666,0.03130934,0.00866003,-0.12313668,-0.07415667,0.98961467,-0.00161918,0.00433245,0.00354940,0.00010713,-0.06173282,-0.03716835,0.99740018,0.12345006,-0.07479510,3.13675308
15513596,15.50306797,-0.01612098,-0.00346401,0.00985911,-0.12127453,-0.07354176,0.98989095,0.02117687,0.00713551,-0.00014484,0.00012174,-0.06079559,-0.03685674,0.99746952,0.12157378,-0.07415655,3.13683319
15546592,15.53606414,-0.01891884,0.03317458,0.03344104,-0.12049331,-0.07538182,0.98984775,0.00599135,-0.02325099,0.02528900,0.00018911,-0.06040731,-0.03777549,0.99745864,0.12078683,-0.07600825,3.13661527
15579560,15.56903171,0.02038438,0.00732772,0.02837825,-0.11971189,-0.07721683,0.98980112,0.00618651,-0.01482418,0.00043327,0.00025713,-0.06001913,-0.03869177,0.99744691,0.11999971,-0.07785480,3.13639783
15612508,15.60198020,0.02198316,-0.01225727,-0.00133231,-0.11874998,-0.07896744,0.98977890,0.01425780,-0.03260483,0.02145159,0.00032852,-0.05954033,-0.03956539,0.99744138,0.11903089,-0.07961426,3.13618755
15645472,15.63494396,0.03970291,0.03890352,-0.00452986,-0.11837272,-0.08091708,0.98966655,0.00191765,-0.01649503,0.00886863,0.00039510,-0.05935592,-0.04053996,0.99741315,0.11865096,-0.08158049,3.13595223
15678380,15.66785240,0.00492956,0.03810414,0.00386371,-0.12032316,-0.08054416,0.98946189,-0.02811433,0.00534885,-0.00264549,0.00034446,-0.06033465,-0.04035777,0.99736194,0.12061543,-0.08122290,3.13599491
15711336,15.70080757,0.00253139,-0.01212404,0.02451455,-0.12172265,-0.07911834,0.98940601,-0.01035744,0.00758514,0.01401192,0.00027099,-0.06103392,-0.03964778,0.99734802,0.12202522,-0.07979571,3.13617205
15744284,15.73375606,0.02584686,0.02677948,0.02238285,-0.12347166,-0.07815477,0.98926544,-0.00665530,-0.00070265,0.02928925,0.00020534,-0.06191024,-0.03916994,0.99731264,0.12378758,-0.07883909,3.13629245
15777260,15.76673221,0.02291577,-0.02264931,0.04010260,-0.12387216,-0.07619648,0.98936824,-0.00308097,0.00466327,0.01527041,0.00013364,-0.06210648,-0.03819159,0.99733848,0.12419117,-0.07686357,3.13654327
15810224,15.79969596,0.02371516,-0.01239050,0.01905207,-0.12197808,-0.07678171,0.98955802,0.01919487,-0.00500540,-0.00664789,0.00018651,-0.06115608,-0.03848003,0.99738597,0.12228264,-0.07743677,3.13647580
15843148,15.83261966,0.04063552,0.01758652,0.03277488,-0.12391637,-0.07711210,0.98929147,-0.01939418,-0.00443088,0.01607961,0.00015705,-0.06213082,-0.03864991,0.99731912,0.12423576,-0.07778949,3.13643693
15876072,15.86554431,0.03903675,-0.02504747,0.02677948,-0.12204759,-0.07778186,0.98947162,0.01364914,-0.00644666,0.01345801,0.00021187,-0.06119333,-0.03898070,0.99736442,0.12235264,-0.07844817,3.13636016
15909008,15.89848041,0.03237519,0.01199081,0.00346401,-0.12328500,-0.07930061,0.98919763,-0.00440055,-0.00517204,0.00274575,0.00023430,-0.06181899,-0.03974330,0.99729566,0.12359949,-0.07999553,3.13617014
15941928,15.93140029,0.01758652,-0.01612098,0.01625421,-0.12140527,-0.07872970,0.98947572,0.00958887,0.00304610,-0.00217104,0.00025281,-0.06087298,-0.03945340,0.99736537,0.12170550,-0.07939981,3.13624548
15974896,15.96436786,-0.00706126,0.02797856,-0.00159877,-0.11948423,-0.07834273,0.98973999,0.00571470,0.00119429,0.00000608,0.00027908,-0.05990694,-0.03925547,0.99743156,0.11977042,-0.07899016,3.13629460
16007884,15.99735641,0.00652833,0.00919296,0.01438897,-0.11755328,-0.07798167,0.98999986,-0.00036665,-0.00087576,0.01439470,0.00030506,-0.05893609,-0.03907066,0.99749670,0.11782573,-0.07860707,3.13634228
16040796,16.03026771,0.01252374,0.02611332,-0.00319755,-0.11568653,-0.07864457,0.99016733,0.00264942,-0.00314254,0.01862174,0.00036169,-0.05800027,-0.03939828,0.99753866,0.11594617,-0.07925916,3.13626503
16073708,16.06318092,0.02984380,0.01798622,0.00346401,-0.11762154,-0.07900809,0.98991060,-0.01348198,-0.00375558,0.01912260,0.00033424,-0.05897294,-0.03958430,0.99747447,0.11789445,-0.07964453,3.13621973
16106612,16.09608459,0.03197550,-0.01931853,0.00119908,-0.11741575,-0.08098292,0.98977518,-0.00074832,-0.00617529,0.01046896,0.00039659,-0.05887465,-0.04057196,0.99744043,0.11768724,-0.08163766,3.13598537
16139596,16.12906837,0.01025880,0.00945942,-0.00799387,-0.11858199,-0.08256191,0.98950586,-0.00153519,-0.00264317,-0.00757229,0.00042026,-0.05946460,-0.04136463,0.99737291,0.11886168,-0.08324470,3.13579392
16172592,16.16206359,0.00373047,-0.01798622,0.00053292,-0.12008781,-0.08380952,0.98921909,-0.00784188,-0.00627837,0.01200163,0.00042605,-0.06022434,-0.04199244,0.99730100,0.12037835,-0.08452108,3.13564181
16205560,16.19503211,0.01811945,-0.00146554,0.00266462,-0.11820313,-0.08325911,0.98949260,-0.00215820,-0.00170183,0.02173781,0.00044906,-0.05927621,-0.04171266,0.99736957,0.11848014,-0.08394548,3.13571047
16238500,16.22797203,0.02864472,-0.00599541,-0.00546248,-0.11657201,-0.08216723,0.98977727,-0.00012721,-0.00010816,0.00436336,0.00045152,-0.05845418,-0.04116256,0.99744091,0.11683769,-0.08282596,3.13584041
16271472,16.26094436,0.00026646,-0.03663859,0.00306432,-0.11466643,-0.08274340,0.98995189,0.01603361,-0.00246168,-0.01900458,0.00050712,-0.05749886,-0.04144680,0.99748458,0.11491923,-0.08338943,3.13577628
16304428,16.29389953,-0.01811945,0.01665390,-0.02438132,-0.11565402,-0.08444889,0.98969306,-0.00080106,-0.00124448,0.00102955,0.00053753,-0.05799941,-0.04230241,0.99741973,0.11591343,-0.08512216,3.13557291
16337452,16.32692337,-0.02051761,0.02824502,-0.01625421,-0.11762490,-0.08424777,0.98947782,-0.02007041,0.00148410,0.00417453,0.00049134,-0.05898857,-0.04220608,0.99736585,0.11789786,-0.08493881,3.13559150
16370440,16.35991287,-0.00892649,-0.04676416,0.01612098,-0.11957482,-0.08444979,0.98922672,-0.01323768,-0.00270841,0.01712090,0.00045436,-0.05996837,-0.04231177,0.99730291,0.11986163,-0.08516302,3.13556838
16403420,16.39289283,0.02598009,0.00346401,0.01585452,-0.11785318,-0.08544694,0.98934783,0.00457193,-0.00610579,0.02261507,0.00051964,-0.05910646,-0.04280692,0.99733324,0.11812775,-0.08615315,3.13545298
16436324,16.42579650,0.00226493,-0.04090198,0.02837825,-0.11977664,-0.08581429,0.98908491,-0.01450071,-0.00207633,-0.01301068,0.00048652,-0.06007339,-0.04299540,0.99726734,0.12006493,-0.08654458,3.13541197
16469268,16.45874023,-0.07061256,-0.04516539,0.01105819,-0.11780015,-0.08598066,0.98930826,0.02771226,0.00370526,-0.05864418,0.00053198,-0.05908113,-0.04307419,0.99732341,0.11807429,-0.08669204,3.13539862
16502296,16.49176788,-0.19065390,-0.02278254,0.00119908,-0.11962220,-0.08672594,0.98902435,0.00438783,0.00445054,-0.06739348,0.00051246,-0.05999823,-0.04345161,0.99725217,0.11990935,-0.08746465,3.13531136
16535276,16.52474784,-0.43992953,-0.12310566,-0.01292343,-0.11857165,-0.08851659,0.98899202,0.02140368,0.01258885,-0.16672640,0.00058474,-0.05947566,-0.04434573,0.99724397,0.11885128,-0.08926397,3.13510560
16568292,16.55776405,-0.89837827,-0.15934456,-0.00546248,-0.12041954,-0.08924459,0.98870334,-0.01117225,0.01136373,-0.28289275,0.00055533,-0.06040545,-0.04471522,0.99717159,0.12071251,-0.09002033,3.13503527
16601312,16.59078407,-1.52922821,-0.39329862,0.08220368,-0.12146838,-0.09111794,0.98840427,-0.00987928,-0.04315940,-0.35437107,0.00056220,-0.06093677,-0.04565727,0.99709672,0.12176908,-0.09192710,3.13485717
16634348,16.62381935,-2.52433228,-0.79952068,0.21223735,-0.12212970,-0.09334539,0.98811473,-0.06585859,-0.20719172,-0.35481400,0.00056362,-0.06127356,-0.04677737,0.99702405,0.12243539,-0.09418867,3.13468456
16667364,16.65683555,-2.81171226,-0.64204130,0.40981931,-0.12188465,-0.09580211,0.98790988,0.06915028,-0.29286977,-0.39953093,0.00057421,-0.06115503,-0.04801128,0.99697265,0.12218847,-0.09667226,3.13452267
16700356,16.68982887,-3.52636456,-0.16747165,0.63644561,-0.12234644,-0.09830734,0.98760671,-0.09615942,-0.49471025,-0.35284109,0.00054612,-0.06139064,-0.04927305,0.99689664,0.12265374,-0.09921416,3.13439989
16733400,16.72287178,-3.74566316,-0.12457121,0.76421442,-0.12217289,-0.10091434,0.98736486,0.07676273,-0.67374382,-0.21661293,0.00052368,-0.06130691,-0.05058512,0.99683599,0.12247892,-0.10185207,3.13429141
16766464,16.75593566,-3.74020075,0.13149923,0.52946095,-0.12190474,-0.10351170,0.98712940,0.14705121,-0.81714258,-0.22834033,0.00052602,-0.06117683,-0.05189091,0.99677696,0.12220871,-0.10447950,3.13413929
16799428,16.78890037,-3.56100463,-0.35945787,0.33787441,-0.12161006,-0.10608826,0.98689212,0.12820185,-0.89000549,-0.23127686,0.00054241,-0.06103422,-0.05318561,0.99671745,0.12191183,-0.10708612,3.13396239
16832028,16.82150077,-0.00013323,-0.00013323,-0.00013323,-0.12299932,-0.10746260,0.98657112,0.12293828,0.10740157,-0.98663215,0.00054744,-0.06173677,-0.05387870,0.99663696,0.12331161,-0.10849760,3.13378953
16864932,16.85440444,-0.00013323,-0.00013323,-0.00013323,-0.12438776,-0.10883624,0.98624620,0.12432672,0.10877521,-0.98630723,0.00055230,-0.06243910,-0.05457161,0.99655542,0.12471082,-0.10990930,3.13361501
44039968,44.02944183,-0.00013323,-0.00013323,-0.00013323,-0.12577551,-0.11020920,0.98591785,0.12571448,0.11014816,-0.98597888,0.00055724,-0.06314125,-0.05526432,0.99647302,0.12610952,-0.11132121,3.13343834
44071868,44.06134033,0.00000000,0.00000000,0.00000000,-0.12577551,-0.11020920,0.98591785,0.12577551,0.11020920,-0.98591785,0.00055724,-0.06314125,-0.05526432,0.99647302,0.12610952,-0.11132121,3.13343834
44103564,44.09303665,0.00000000,0.00000000,0.00000000,-0.12577551,-0.11020920,0.98591785,0.12577551,0.11020920,-0.98591785,0.00055724,-0.06314125,-0.05526432,0.99647302,0.12610952,-0.11132121,3.13343834
44135248,44.12472152,0.00000000,0.00000000,0.00000000,-0.12577551,-0.11020920,0.98591785,0.12577551,0.11020920,-0.98591785,0.00055724,-0.06314125,-0.05526432,0.99647302,0.12610952,-0.11132121,3.13343834
44166944,44.15641784,0.00000000,0.00000000,0.00000000,-0.12577551,-0.11020920,0.98591785,0.12577551,0.11020920,-0.98591785,0.00055724,-0.06314125,-0.05526432,0.99647302,0.12610952,-0.11132121,3.13343834
44198640,44.18811035,0.00000000,0.00000000,0.00000000,-0.12577551,-0.11020920,0.98591785,0.12577551,0.11020920,-0.98591785,0.00055724,-0.06314125,-0.05526432,0.99647302,0.12610952,-0.11132121,3.13343834
44230328,44.21979904,0.00000000,0.00000000,0.00000000,-0.12577551,-0.11020920,0.98591785,0.12577551,0.11020920,-0.98591785,0.00055724,-0.06314125,-0.05526432,0.99647302,0.12610952,-0.11132121,3.13343834
44262032,44.25150299,0.00000000,0.00000000,0.00000000,-0.12577551,-0.11020920,0.98591785,0.12577551,0.11020920,-0.98591785,0.00055724,-0.06314125,-0.05526432,0.99647302,0.12610952,-0.11132121,3.13343834
44293736,44.28320693,0.00000000,0.00000000,0.00000000,-0.12577551,-0.11020920,0.98591785,0.12577551,0.11020920,-0.98591785,0.00055724,-0.06314125,-0.05526432,0.99647302,0.12610952,-0.11132121,3.13343834
44325432,44.31490325,0.00000000,0.00000000,0.00000000,-0.12577551,-0.11020920,0.98591785,0.12577551,0.11020920,-0.98591785,0.00055724,-0.06314125,-0.05526432,0.99647302,0.12610952,-0.11132121,3.13343834
44357144,44.34661483,0.00000000,0.00000000,0.00000000,-0.12577551,-0.11020920,0.98591785,0.12577551,0.11020920,-0.98591785,0.00055724,-0.06314125,-0.05526432,0.99647302,0.12610952,-0.11132121,3.13343834
44388852,44.37832260,0.00000000,0.00000000,0.00000000,-0.12577551,-0.11020920,0.98591785,0.12577551,0.11020920,-0.98591785,0.00055724,-0.06314125,-0.05526432,0.99647302,0.12610952,-0.11132121,3.13343834
44420568,44.41004180,0.00000000,0.00000000,0.00000000,-0.12577551,-0.11020920,0.98591785,0.12577551,0.11020920,-0.98591785,0.00055724,-0.06314125,-0.05526432,0.99647302,0.12610952,-0.11132121,3.13343834
44452284,44.44175720,0.00000000,0.00000000,0.00000000,-0.12577551,-0.11020920,0.98591785,0.12577551,0.11020920,-0.98591785,0.00055724,-0.06314125,-0.05526432,0.99647302,0.12610952,-0.11132121,3.13343834
44484016,44.47348785,0.00000000,0.00000000,0.00000000,-0.12577551,-0.11020920,0.98591785,0.12577551,0.11020920,-0.98591785,0.00055724,-0.06314125,-0.05526432,0.99647302,0.12610952,-0.11132121,3.13343834
44515744,44.50521469,0.00000000,0.00000000,0.00000000,-0.12577551,-0.11020920,0.98591785,0.12577551,0.11020920,-0.98591785,0.00055724,-0.06314125,-0.05526432,0.99647302,0.12610952,-0.11132121,3.13343834
44547472,44.53694534,0.00000000,0.00000000,0.00000000,-0.12577551,-0.11020920,0.98591785,0.12577551,0.11020920,-0.98591785,0.00055724,-0.06314125,-0.05526432,0.99647302,0.12610952,-0.11132121,3.13343834
44579208,44.56867980,0.00000000,0.00000000,0.00000000,-0.12577551,-0.11020920,0.98591785,0.12577551,0.11020920,-0.98591785,0.00055724,-0.06314125,-0.05526432,0.99647302,0.12610952,-0.11132121,3.13343834
44610948,44.60042190,0.00000000,0.00000000,0.00000000,-0.12577551,-0.11020920,0.98591785,0.12577551,0.11020920,-0.98591785,0.00055724,-0.06314125,-0.05526432,0.99647302,0.12610952,-0.11132121,3.13343834
44642680,44.63215255,0.00000000,0.00000000,0.00000000,-0.12577551,-0.11020920,0.98591785,0.12577551,0.11020920,-0.98591785,0.00055724,-0.06314125,-0.05526432,0.99647302,0.12610952,-0.11132121,3.13343834
44674416,44.66388702,0.00000000,0.00000000,0.00000000,-0.12577551,-0.11020920,0.98591785,0.12577551,0.11020920,-0.98591785,0.00055724,-0.06314125,-0.05526432,0.99647302,0.12610952,-0.11132121,3.13343834
44706164,44.69563674,0.00000000,0.00000000,0.00000000,-0.12577551,-0.11020920,0.98591785,0.12577551,0.11020920,-0.98591785,0.00055724,-0.06314125,-0.05526432,0.99647302,0.12610952,-0.11132121,3.13343834
44737908,44.72737884,0.00000000,0.00000000,0.00000000,-0.12577551,-0.11020920,0.98591785,0.12577551,0.11020920,-0.98591785,0.00055724,-0.06314125,-0.05526432,0.99647302,0.12610952,-0.11132121,3.13343834
44769652,44.75912475,0.00000000,0.00000000,0.00000000,-0.12577551,-0.11020920,0.98591785,0.12577551,0.11020920,-0.98591785,0.00055724,-0.06314125,-0.05526432,0.99647302,0.12610952,-0.11132121,3.13343834
44801392,44.79086303,0.00000000,0.00000000,0.00000000,-0.12577551,-0.11020920,0.98591785,0.12577551,0.11020920,-0.98591785,0.00055724,-0.06314125,-0.05526432,0.99647302,0.12610952,-0.11132121,3.13343834
44833124,44.82259750,0.00000000,0.00000000,0.00000000,-0.12577551,-0.11020920,0.98591785,0.12577551,0.11020920,-0.98591785,0.00055724,-0.06314125,-0.05526432,0.99647302,0.12610952,-0.11132121,3.13343834
44864840,44.85431289,0.00000000,0.00000000,0.00000000,-0.12577551,-0.11020920,0.98591785,0.12577551,0.11020920,-0.98591785,0.00055724,-0.06314125,-0.05526432,0.99647302,0.12610952,-0.11132121,3.13343834
44896552,44.88602447,0.00000000,0.00000000,0.00000000,-0.12577551,-0.11020920,0.98591785,0.12577551,0.11020920,-0.98591785,0.00055724,-0.06314125,-0.05526432,0.99647302,0.12610952,-0.11132121,3.13343834
44928280,44.91775131,0.00000000,0.00000000,0.00000000,-0.12577551,-0.11020920,0.98591785,0.12577551,0.11020920,-0.98591785,0.00055724,-0.06314125,-0.05526432,0.99647302,0.12610952,-0.11132121,3.13343834
44960012,44.94948577,0.00000000,0.00000000,0.00000000,-0.12577551,-0.11020920,0.98591785,0.12577551,0.11020920,-0.98591785,0.00055724,-0.06314125,-0.05526432,0.99647302,0.12610952,-0.11132121,3.13343834
44991724,44.98119735,0.00000000,0.00000000,0.00000000,-0.12577551,-0.11020920,0.98591785,0.12577551,0.11020920,-0.98591785,0.00055724,-0.06314125,-0.05526432,0.99647302,0.12610952,-0.11132121,3.13343834
45023456,45.01292800,0.00000000,0.00000000,0.00000000,-0.12577551,-0.11020920,0.98591785,0.12577551,0.11020920,-0.98591785,0.00055724,-0.06314125,-0.05526432,0.99647302,0.12610952,-0.11132121,3.13343834
45055172,45.04464340,0.00000000,0.00000000,0.00000000,-0.12577551,-0.11020920,0.98591785,0.12577551,0.11020920,-0.98591785,0.00055724,-0.06314125,-0.05526432,0.99647302,0.12610952,-0.11132121,3.13343834
45086896,45.07636642,0.00000000,0.00000000,0.00000000,-0.12577551,-0.11020920,0.98591785,0.12577551,0.11020920,-0.98591785,0.00055724,-0.06314125,-0.05526432,0.99647302,0.12610952,-0.11132121,3.13343834
45118608,45.10808181,0.00000000,0.00000000,0.00000000,-0.12577551,-0.11020920,0.98591785,0.12577551,0.11020920,-0.98591785,0.00055724,-0.06314125,-0.05526432,0.99647302,0.12610952,-0.11132121,3.13343834
45150312,45.13978576,0.00000000,0.00000000,0.00000000,-0.12577551,-0.11020920,0.98591785,0.12577551,0.11020920,-0.98591785,0.00055724,-0.06314125,-0.05526432,0.99647302,0.12610952,-0.11132121,3.13343834
45182020,45.17149353,0.00000000,0.00000000,0.00000000,-0.12577551,-0.11020920,0.98591785,0.12577551,0.11020920,-0.98591785,0.00055724,-0.06314125,-0.05526432,0.99647302,0.12610952,-0.11132121,3.13343834
45213716,45.20318984,0.00000000,0.00000000,0.00000000,-0.12577551,-0.11020920,0.98591785,0.12577551,0.11020920,-0.98591785,0.00055724,-0.06314125,-0.05526432,0.99647302,0.12610952,-0.11132121,3.13343834
45245404,45.23487472,0.00000000,0.00000000,0.00000000,-0.12577551,-0.11020920,0.98591785,0.12577551,0.11020920,-0.98591785,0.00055724,-0.06314125,-0.05526432,0.99647302,0.12610952,-0.11132121,3.13343834
45277092,45.26656341,0.00000000,0.00000000,0.00000000,-0.12577551,-0.11020920,0.98591785,0.12577551,0.11020920,-0.98591785,0.00055724,-0.06314125,-0.05526432,0.99647302,0.12610952,-0.11132121,3.13343834
45308784,45.29825592,0.00000000,0.00000000,0.00000000,-0.12577551,-0.11020920,0.98591785,0.12577551,0.11020920,-0.98591785,0.00055724,-0.06314125,-0.05526432,0.99647302,0.12610952,-0.11132121,3.13343834
45340476,45.32994842,0.00000000,0.00000000,0.00000000,-0.12577551,-0.11020920,0.98591785,0.12577551,0.11020920,-0.98591785,0.00055724,-0.06314125,-0.05526432,0.99647302,0.12610952,-0.11132121,3.13343834
45372176,45.36164855,0.00000000,0.00000000,0.00000000,-0.12577551,-0.11020920,0.98591785,0.12577551,0.11020920,-0.98591785,0.00055724,-0.06314125,-0.05526432,0.99647302,0.12610952,-0.11132121,3.13343834
45403876,45.39334869,0.00000000,0.00000000,0.00000000,-0.12577551,-0.11020920,0.98591785,0.12577551,0.11020920,-0.98591785,0.00055724,-0.06314125,-0.05526432,0.99647302,0.12610952,-0.11132121,3.13343834
45435576,45.42504882,0.00000000,0.00000000,0.00000000,-0.12577551,-0.11020920,0.98591785,0.12577551,0.11020920,-0.98591785,0.00055724,-0.06314125,-0.05526432,0.99647302,0.12610952,-0.11132121,3.13343834
45467292,45.45676422,0.00000000,0.00000000,0.00000000,-0.12577551,-0.11020920,0.98591785,0.12577551,0.11020920,-0.98591785,0.00055724,-0.06314125,-0.05526432,0.99647302,0.12610952,-0.11132121,3.13343834
45499000,45.48847198,0.00000000,0.00000000,0.00000000,-0.12577551,-0.11020920,0.98591785,0.12577551,0.11020920,-0.98591785,0.00055724,-0.06314125,-0.05526432,0.99647302,0.12610952,-0.11132121,3.13343834
45530712,45.52018356,0.00000000,0.00000000,0.00000000,-0.12577551,-0.11020920,0.98591785,0.12577551,0.11020920,-0.98591785,0.00055724,-0.06314125,-0.05526432,0.99647302,0.12610952,-0.11132121,3.13343834
45562420,45.55189132,0.00000000,0.00000000,0.00000000,-0.12577551,-0.11020920,0.98591785,0.12577551,0.11020920,-0.98591785,0.00055724,-0.06314125,-0.05526432,0.99647302,0.12610952,-0.11132121,3.13343834
45594136,45.58360671,0.00000000,0.00000000,0.00000000,-0.12577551,-0.11020920,0.98591785,0.12577551,0.11020920,-0.98591785,0.00055724,-0.06314125,-0.05526432,0.99647302,0.12610952,-0.11132121,3.13343834
45625844,45.61531448,0.00000000,0.00000000,0.00000000,-0.12577551,-0.11020920,0.98591785,0.12577551,0.11020920,-0.98591785,0.00055724,-0.06314125,-0.05526432,0.99647302,0.12610952,-0.11132121,3.13343834
45657568,45.64704132,0.00000000,0.00000000,0.00000000,-0.12577551,-0.11020920,0.98591785,0.12577551,0.11020920,-0.98591785,0.00055724,-0.06314125,-0.05526432,0.99647302,0.12610952,-0.11132121,3.13343834
45689300,45.67877197,0.00000000,0.00000000,0.00000000,-0.12577551,-0.11020920,0.98591785,0.12577551,0.11020920,-0.98591785,0.00055724,-0.06314125,-0.05526432,0.99647302,0.12610952,-0.11132121,3.13343834
45721036,45.71050643,0.00000000,0.00000000,0.00000000,-0.12577551,-0.11020920,0.98591785,0.12577551,0.11020920,-0.98591785,0.00055724,-0.06314125,-0.05526432,0.99647302,0.12610952,-0.11132121,3.13343834
45752784,45.74225616,0.00000000,0.00000000,0.00000000,-0.12577551,-0.11020920,0.98591785,0.12577551,0.11020920,-0.98591785,0.00055724,-0.06314125,-0.05526432,0.99647302,0.12610952,-0.11132121,3.13343834
45784532,45.77400588,0.00000000,0.00000000,0.00000000,-0.12577551,-0.11020920,0.98591785,0.12577551,0.11020920,-0.98591785,0.00055724,-0.06314125,-0.05526432,0.99647302,0.12610952,-0.11132121,3.13343834
45816252,45.80572509,0.00000000,0.00000000,0.00000000,-0.12577551,-0.11020920,0.98591785,0.12577551,0.11020920,-0.98591785,0.00055724,-0.06314125,-0.05526432,0.99647302,0.12610952,-0.11132121,3.13343834
45847988,45.83745956,0.00000000,0.00000000,0.00000000,-0.12577551,-0.11020920,0.98591785,0.12577551,0.11020920,-0.98591785,0.00055724,-0.06314125,-0.05526432,0.99647302,0.12610952,-0.11132121,3.13343834
45879724,45.86919784,0.00000000,0.00000000,0.00000000,-0.12577551,-0.11020920,0.98591785,0.12577551,0.11020920,-0.98591785,0.00055724,-0.06314125,-0.05526432,0.99647302,0.12610952,-0.11132121,3.13343834
45911456,45.90092849,0.00000000,0.00000000,0.00000000,-0.12577551,-0.11020920,0.98591785,0.12577551,0.11020920,-0.98591785,0.00055724,-0.06314125,-0.05526432,0.99647302,0.12610952,-0.11132121,3.13343834
45943184,45.93265533,0.00000000,0.00000000,0.00000000,-0.12577551,-0.11020920,0.98591785,0.12577551,0.11020920,-0.98591785,0.00055724,-0.06314125,-0.05526432,0.99647302,0.12610952,-0.11132121,3.13343834
45974928,45.96440124,0.00000000,0.00000000,0.00000000,-0.12577551,-0.11020920,0.98591785,0.12577551,0.11020920,-0.98591785,0.00055724,-0.06314125,-0.05526432,0.99647302,0.12610952,-0.11132121,3.13343834
46006664,45.99613571,0.00000000,0.00000000,0.00000000,-0.12577551,-0.11020920,0.98591785,0.12577551,0.11020920,-0.98591785,0.00055724,-0.06314125,-0.05526432,0.99647302,0.12610952,-0.11132121,3.13343834
46038400,46.02787017,0.00000000,0.00000000,0.00000000,-0.12577551,-0.11020920,0.98591785,0.12577551,0.11020920,-0.98591785,0.00055724,-0.06314125,-0.05526432,0.99647302,0.12610952,-0.11132121,3.13343834
46070140,46.05961227,0.00000000,0.00000000,0.00000000,-0.12577551,-0.11020920,0.98591785,0.12577551,0.11020920,-0.98591785,0.00055724,-0.06314125,-0.05526432,0.99647302,0.12610952,-0.11132121,3.13343834
46101876,46.09134674,0.00000000,0.00000000,0.00000000,-0.12577551,-0.11020920,0.98591785,0.12577551,0.11020920,-0.98591785,0.00055724,-0.06314125,-0.05526432,0.99647302,0.12610952,-0.11132121,3.13343834
46133620,46.12309265,0.00000000,0.00000000,0.00000000,-0.12577551,-0.11020920,0.98591785,0.12577551,0.11020920,-0.98591785,0.00055724,-0.06314125,-0.05526432,0.99647302,0.12610952,-0.11132121,3.13343834
46165352,46.15482330,0.00000000,0.00000000,0.00000000,-0.12577551,-0.11020920,0.98591785,0.12577551,0.11020920,-0.98591785,0.00055724,-0.06314125,-0.05526432,0.99647302,0.12610952,-0.11132121,3.13343834
46197088,46.18656158,0.00000000,0.00000000,0.00000000,-0.12577551,-0.11020920,0.98591785,0.12577551,0.11020920,-0.98591785,0.00055724,-0.06314125,-0.05526432,0.99647302,0.12610952,-0.11132121,3.13343834
46228828,46.21829986,0.00000000,0.00000000,0.00000000,-0.12577551,-0.11020920,0.98591785,0.12577551,0.11020920,-0.98591785,0.00055724,-0.06314125,-0.05526432,0.99647302,0.12610952,-0.11132121,3.13343834
46260548,46.25001907,0.00000000,0.00000000,0.00000000,-0.12577551,-0.11020920,0.98591785,0.12577551,0.11020920,-0.98591785,0.00055724,-0.06314125,-0.05526432,0.99647302,0.12610952,-0.11132121,3.13343834
46292284,46.28175735,0.00000000,0.00000000,0.00000000,-0.12577551,-0.11020920,0.98591785,0.12577551,0.11020920,-0.98591785,0.00055724,-0.06314125,-0.05526432,0.99647302,0.12610952,-0.11132121,3.13343834
46324020,46.31349182,0.00000000,0.00000000,0.00000000,-0.12577551,-0.11020920,0.98591785,0.12577551,0.11020920,-0.98591785,0.00055724,-0.06314125,-0.05526432,0.99647302,0.12610952,-0.11132121,3.13343834
46355748,46.34521865,0.00000000,0.00000000,0.00000000,-0.12577551,-0.11020920,0.98591785,0.12577551,0.11020920,-0.98591785,0.00055724,-0.06314125,-0.05526432,0.99647302,0.12610952,-0.11132121,3.13343834
46387460,46.37693023,0.00000000,0.00000000,0.00000000,-0.12577551,-0.11020920,0.98591785,0.12577551,0.11020920,-0.98591785,0.00055724,-0.06314125,-0.05526432,0.99647302,0.12610952,-0.11132121,3.13343834
46419180,46.40865325,0.00000000,0.00000000,0.00000000,-0.12577551,-0.11020920,0.98591785,0.12577551,0.11020920,-0.98591785,0.00055724,-0.06314125,-0.05526432,0.99647302,0.12610952,-0.11132121,3.13343834
