time,seconds_elapsed,rotationRateX,rotationRateY,rotationRateZ,gravityX,gravityY,gravityZ,accelerationX,accelerationY,accelerationZ,quaternionW,quaternionX,quaternionY,quaternionZ,pitch,roll,yaw
1763355446616537600,0.31353759765625,-0.00022132368758320808,0.026323683559894562,0.003538828343153,0.051256559789180756,-0.2627638578414917,-0.9634977579116821,0.00018082186579704285,0.0083235502243042,0.005413651466369629,0.3336938123818485,0.02030194261818392,0.13356254963492892,0.9329509058046254,0.2658856179699359,0.05314832315473044,2.4474907042437106
1763355446626583552,0.32358360290527344,-0.010813547298312187,0.04005151242017746,0.0043763043358922005,0.05155997350811958,-0.2627445161342621,-0.9634868502616882,-0.0011601820588111877,0.007907480001449585,0.0032207369804382324,0.3336607842618845,0.020149944671105625,0.13360597630664814,0.9329598120453289,0.26586555001944684,0.053462939297808244,2.447517995048579
1763355446636629504,0.3336296081542969,-0.027710773050785065,0.04677253216505051,-0.0021335268393158913,0.05069562420248985,-0.2596389949321747,-0.9643741846084595,-0.001501280814409256,0.0019180476665496826,0.009418129920959473,0.3336598614341634,0.020017598417099717,0.131955316998979,0.9331978828836032,0.26264834678617793,0.052520074554465494,2.447893695439278
1763355446646675712,0.3436756134033203,-0.051678791642189026,0.04763949289917946,0.0018871361389756203,0.05019840970635414,-0.2625836431980133,-0.963602602481842,-0.0017365030944347382,-0.00020322203636169434,0.011515200138092041,0.3334614023538629,0.02073907008026689,0.13329891220143578,0.9330619862374094,0.2656988451468137,0.052047465584293,2.4481600573231814
1763355446656721664,0.35372161865234375,-0.05474728345870972,0.0534270741045475,0.0007619503885507584,0.051109857857227325,-0.2673620581626892,-0.9622397422790527,-0.0008321516215801239,-0.006014406681060791,0.009938716888427734,0.33326600200529727,0.0211131781010922,0.13577321552953406,0.9327666230378433,0.2706543846426828,0.053065647145507384,2.448060847665332
1763355446666767616,0.3637676239013672,-0.04953484237194061,0.06459920108318329,-0.0008143740706145763,0.05281448736786842,-0.2689657509326935,-0.9617006182670593,0.0008506812155246735,-0.0064553916454315186,0.009262263774871826,0.33322408798463915,0.020578630369066913,0.13684376459069725,0.9326371789962179,0.27231905568181597,0.05486269388987393,2.44776132816803
1763355446676813568,0.3738136291503906,-0.05970732122659683,0.061332035809755325,0.00035768281668424606,0.05406029522418976,-0.26827120780944824,-0.9618253707885742,-0.0019515268504619598,0.009985685348510742,0.007281303405761719,0.33323069221443224,0.01986714875731077,0.13672092052217127,0.9326682445575151,0.2715980082818431,0.05614686224051217,2.447614406288473
1763355446686859520,0.38385963439941406,-0.08463291078805923,0.05498865246772766,0.0074915811419487,0.0544452890753746,-0.26672449707984924,-0.9622337222099304,0.0010051503777503967,0.010941416025161743,0.00202864408493042,0.3331966273572377,0.01940935774772411,0.136038277017232,0.9327898266410094,0.2699928095674526,0.056521917776339345,2.4477566570538665
1763355446696905728,0.3939056396484375,-0.09713511914014816,0.061333898454904556,0.012019753456115723,0.05459976568818092,-0.2643524706363678,-0.9628793597221375,0.00608443096280098,-0.008596748113632202,0.006153285503387451,0.33313963532690116,0.018913860870548353,0.13491698958637233,0.9329831271334685,0.2675324385235916,0.056644022837558414,2.4480505697725508
1763355446706951680,0.40395164489746094,-0.09590204060077667,0.06655818969011307,0.008891692385077477,0.05471497401595116,-0.26237091422080994,-0.9634146690368652,0.0022460855543613434,-0.011570125818252563,0.012181758880615234,0.3330652243583568,0.018503057563966616,0.13397878865067253,0.9331532276168387,0.26547838937544727,0.05673181599280431,2.448355131421881
1763355446718253568,0.4152536392211914,-0.09225883334875107,0.06672277301549911,0.010217947885394096,0.05483568459749222,-0.2611086666584015,-0.9637506604194641,-0.003291487693786621,0.005493432283401489,0.008687794208526611,0.33294769170214894,0.018209130491154205,0.1333907849964768,0.9332851931361688,0.2641705322176948,0.056836925214978254,2.4486918936953193
1763355446737088512,0.43408846855163574,-0.07917692512273788,0.04556748643517494,0.006639724597334862,0.05491162836551666,-0.2612229287624359,-0.9637153744697571,0.004857052117586136,0.002601712942123413,0.00218278169631958,0.33267995626241853,0.018154717248694347,0.13346432153046758,0.9333712277049759,0.2642889120720242,0.05691755035631877,2.449245088829964
1763355446747134464,0.4441344738006592,-0.1310870349407196,0.03972694277763367,0.0046819462440907955,0.055220719426870346,-0.2616816461086273,-0.9635732173919678,0.0075844451785087585,0.006173253059387207,-0.006229579448699951,0.33257926427589535,0.018073474105126826,0.13374128780980712,0.933368925883258,0.2647641561536595,0.05724566037906681,2.449377332229313
1763355446757181696,0.4541816711425781,-0.19939711689949036,0.030003206804394722,0.005306990351527929,0.05532298982143402,-0.26006561517715454,-0.9640048146247864,0.0065056197345256805,-0.02228301763534546,0.021347343921661377,0.3325359099878431,0.01773781088780603,0.13297734343286066,0.9334999841090955,0.26309015459368845,0.05732583163348955,2.449586729837743
1763355446767227648,0.46422767639160156,-0.24956540763378143,0.02458467334508896,0.007530285976827145,0.05557715892791748,-0.25773829221725464,-0.9646150469779968,0.0025893449783325195,-0.06443578004837036,0.022186458110809326,0.33251717586235474,0.01721033275905111,0.13189499880928118,0.9336700803734894,0.26068067601735223,0.05755226933392956,2.4497781108947807
1763355446777273600,0.474273681640625,-0.28945448994636536,0.03108545020222664,0.004724378697574139,0.0562087818980217,-0.2563287317752838,-0.9649539589881897,0.0006454735994338989,-0.040408939123153687,0.015796244144439697,0.33246961155164684,0.016659421717816585,0.13132204521835864,0.9337778265759583,0.2592221118403904,0.05818447169029612,2.4499017653200137
1763355446787319552,0.48431968688964844,-0.30216848850250244,0.03852235898375511,0.00421509426087141,0.056623682379722595,-0.25483885407447815,-0.9653242826461792,-0.0007765144109725952,-0.0024395883083343506,0.0154951810836792,0.3324084200005601,0.016195694774291242,0.13067352928318413,0.9338987712753338,0.25768106536831786,0.05859054625719532,2.4500929042364574
1763355446797365760,0.4943656921386719,-0.31127461791038513,0.03615960478782654,0.010602952912449837,0.056678179651498795,-0.2521601915359497,-0.9660242199897766,0.0014883242547512054,0.008217930793762207,0.005544483661651611,0.33234724855119857,0.01569727179562519,0.12938886642272285,0.9341077992967309,0.2549119332733167,0.05860440763666082,2.4504311350994468
1763355446807411712,0.5044116973876953,-0.3367864489555359,0.04126628115773201,0.005440059117972851,0.057041995227336884,-0.24911034107208252,-0.9667937755584717,0.004099968820810318,0.008677616715431213,0.001995861530303955,0.3323107409492778,0.014992005171526705,0.1279778945786556,0.9343267324020934,0.25176153205691776,0.0589328802308847,2.4507007573308326
1763355446817457664,0.5144577026367188,-0.35786935687065125,0.035767652094364166,0.008072327822446823,0.05754465609788895,-0.24635091423988342,-0.9674708247184753,0.002666514366865158,0.007337242364883423,0.008303344249725342,0.33226527835474795,0.014270604137646045,0.12673171958491466,0.9345239959127094,0.24891332295918164,0.05940947953681519,2.4509459762220795
1763355446827503360,0.5245034694671631,-0.37333789467811584,0.047041475772857666,0.0032275053672492504,0.05819227173924446,-0.24325063824653625,-0.9682163000106812,0.00014209002256393433,-0.004063814878463745,0.019623160362243652,0.33223686504712363,0.013424618136204063,0.1253460459084879,0.9347336256493025,0.24571574546856717,0.06003033902718432,2.45116144230222
1763355446837549568,0.5345494747161865,-0.3570351004600525,0.03280901163816452,0.004073857795447111,0.05877825245261192,-0.24174711108207703,-0.9685574173927307,-9.294599294662476e-05,9.366869926452637e-05,0.011129438877105713,0.3321588755325569,0.012877172690676762,0.1247215873105432,0.9348524846710097,0.24416595875989222,0.06061205276429575,2.4513655252534687
1763355446847595520,0.54459547996521,-0.37887701392173767,0.024834178388118744,0.0023618885315954685,0.059059008955955505,-0.2414940595626831,-0.9686034321784973,0.009132515639066696,0.007225885987281799,-0.0014740228652954102,0.33202540674434355,0.012682680884797756,0.12464919200568271,0.9349122432801017,0.24390518217851834,0.06089796972802849,2.451632379706539
1763355446857641472,0.5546414852142334,-0.42134618759155273,0.029516015201807022,0.007228016387671232,0.05923080816864967,-0.23990799486637115,-0.9689870476722717,0.007144920527935028,-0.010275110602378845,0.012016832828521729,0.33193257920142955,0.012315799302378128,0.12391451285869277,0.9350477041257114,0.24227107361381756,0.06105056118026834,2.451931926578289
1763355446867688704,0.5646886825561523,-0.45888781547546387,0.03757830336689949,0.0041067032143473625,0.05953886732459068,-0.2356022745370865,-0.970024049282074,-0.0020285025238990784,-0.02961072325706482,0.01502227783203125,0.331907654335262,0.011425998209681843,0.1218909983061219,0.9353337466210689,0.23783824793633992,0.06130184823582403,2.452279328076645
1763355446877734656,0.5747346878051758,-0.48455482721328735,0.043852176517248154,0.005282755941152573,0.0599232092499733,-0.23102939128875732,-0.9710996747016907,-0.002733267843723297,-0.020694836974143982,0.01210010051727295,0.33188482335857267,0.01045570496207846,0.11975319693596416,0.9356293742615193,0.23313557006367466,0.061628403998998986,2.452629866480848
1763355446887780608,0.5847806930541992,-0.4955352246761322,0.04420657455921173,0.0046933977864682674,0.06034264713525772,-0.22627831995487213,-0.9721918106079102,-0.00037560611963272095,0.005941405892372131,0.006234169006347656,0.33186028548068164,0.009439396332669225,0.11753722551526892,0.9359298544662199,0.22825519385358758,0.06198914367829595,2.452989843300648
1763355446897826560,0.5948266983032227,-0.5223106741905212,0.05543552711606026,0.010530248284339905,0.06082687899470329,-0.22129100561141968,-0.9733089804649353,0.0010017380118370056,0.019066274166107178,0.006069600582122803,0.33181934047108436,0.008351408525193872,0.11522048683146077,0.9362427410750211,0.22313809924275568,0.062413763490481895,2.453391159938668
1763355446907872768,0.6048727035522461,-0.5483453869819641,0.07225548475980759,0.0076839495450258255,0.06141804903745651,-0.21608667075634003,-0.9744405150413513,-0.002503868192434311,0.01804286241531372,0.006331443786621094,0.3317633142362954,0.007175530438692386,0.11281950488275258,0.9365646452524717,0.2178046624998893,0.0629457715668631,2.4538241599212522
1763355446917918464,0.6149184703826904,-0.5531782507896423,0.07660549134016037,0.007615240290760994,0.06215281039476395,-0.21062111854553223,-0.9755899906158447,-0.0030860304832458496,0.015873193740844727,0.007999658584594727,0.33170882320511197,0.005889121288165524,0.11031924800313662,0.9368907998559419,0.21221029322554863,0.06362194029581397,2.454252875731154
1763355446927964416,0.6249644756317139,-0.5350051522254944,0.08375637978315353,-0.003911098465323448,0.06294851005077362,-0.2052496373653412,-0.9766831994056702,-0.0028288811445236206,0.017230838537216187,0.011045992374420166,0.33166212975511783,0.004592668969853938,0.1078763516335406,0.9371989774376782,0.2067187726425402,0.06436228883216799,2.4546481227617933
1763355446938010368,0.6350104808807373,-0.4877918064594269,0.08780039101839066,0.0006231996230781078,0.0637902021408081,-0.20024916529655457,-0.9776661396026611,0.00011361390352249146,0.026543110609054565,0.008061647415161133,0.33162793860376705,0.0033406091913950717,0.10562087135663167,0.9374732709225012,0.20161223155774194,0.0651550714446533,2.4549828779696434
1763355446948056576,0.6450564861297607,-0.47104692459106445,0.07639966905117035,0.0028500459156930447,0.06461813300848007,-0.19557274878025055,-0.9785580039024353,0.0018491372466087341,0.020050913095474243,0.0008206367492675781,0.3315885940719175,0.00215088922418066,0.10351987697563174,0.9377248720334534,0.19684144163856065,0.06593830694194695,2.455305642656111
1763355446958102528,0.6551024913787842,-0.48485514521598816,0.07070609927177429,0.010911434888839722,0.06530758738517761,-0.19096176326274872,-0.9794225692749023,0.006942778825759888,-0.013338163495063782,0.0016088485717773438,0.33152498502836747,0.001036423828405535,0.10142806083257498,0.9379778891909274,0.19214184149849742,0.06658112490686999,2.4556903304635487
1763355446968149760,0.6651496887207031,-0.5553966760635376,0.07246910780668259,0.0049642412923276424,0.06598871946334839,-0.18586497008800507,-0.9803569316864014,0.005971737205982208,-0.038912251591682434,0.012690305709838867,0.33144105571528004,-0.00015707785895860313,0.09910353844430035,0.9382565551398737,0.18695209326331144,0.06720953356056841,2.456151445861903
1763355446978195712,0.6751956939697266,-0.6138176321983337,0.07112767547369003,0.003234784584492445,0.06668206304311752,-0.18011260032653809,-0.981383204460144,-0.002686701714992523,-0.044939279556274414,0.028426051139831543,0.3313741755238735,-0.0014636365175071991,0.09646898556112718,0.938553584521528,0.1811009238504048,0.06784274363360128,2.456617777322334
1763355446988241664,0.68524169921875,-0.6378572583198547,0.06615555286407471,0.0008952859789133072,0.06736879050731659,-0.17390194535255432,-0.9824559092521667,7.506459951400757e-05,-0.03404483199119568,0.018741309642791748,0.3313219607091057,-0.002841007637614653,0.09361616759986066,0.9388576800205357,0.17479060748199485,0.06846464521951638,2.457081321820098
1763355446998287616,0.6952877044677734,-0.6539872288703918,0.06321755051612854,-0.0058550285175442696,0.06800611317157745,-0.16753672063350677,-0.9835174679756165,0.004366330802440643,0.001307472586631775,0.007046520709991455,0.33129108526849527,-0.0042170552205759585,0.09068340566487719,0.9391512243087329,0.16833053755075283,0.06903592698791956,2.457510606726948
1763355447008333568,0.7053334712982178,-0.7455014586448669,0.06190335005521774,-0.020977256819605827,0.06865528225898743,-0.16048918664455414,-0.9846469759941101,0.005578726530075073,0.029370412230491638,-0.0023677945137023926,0.3313123934418133,-0.005706686102303213,0.08742965078702852,0.9394443232611521,0.16118624388242375,0.06961311634044672,2.457867719682628
1763355447018379520,0.7153794765472412,-0.7510360479354858,0.06219123676419258,-0.007475561928004026,0.06928478926420212,-0.1531028300523758,-0.9857784509658813,0.002507820725440979,0.018138840794563293,-0.005340933799743652,0.33132613205239647,-0.007242879643920979,0.08401379461553837,0.9397405491273372,0.15370736094558834,0.07016894868355737,2.4582586688735883
1763355447028425472,0.7254254817962646,-0.7529937624931335,0.06639903038740158,-0.008672919124364853,0.06993089616298676,-0.14562156796455383,-0.986865758895874,0.0013886839151382446,-0.006264418363571167,-0.0010340213775634766,0.3313096944430373,-0.008803659839392708,0.08055814421641645,0.9400355597955049,0.14614120522583576,0.07074335680509257,2.4587115745868604
1763355447038471424,0.7354714870452881,-0.7089887261390686,0.0687873587012291,-0.002595319179818034,0.07059180736541748,-0.13834884762763977,-0.9878645539283752,0.00040733814239501953,0.01412704586982727,0.003367483615875244,0.3312715437371143,-0.010336452813311919,0.07720671580680516,0.9403145153366012,0.1387940331030505,0.07133773419372001,2.4591896264069497
1763355447048517376,0.7455174922943115,-0.6615650653839111,0.06214945763349533,-0.011891349218785763,0.07125888764858246,-0.13153588771820068,-0.9887469410896301,0.0006100013852119446,0.016148924827575684,0.009361565113067627,0.33124282043076864,-0.01179279557595064,0.07407744745092958,0.9405591895816484,0.13191817292750377,0.07194550654734432,2.4596133033981196
1763355447058563584,0.755563497543335,-0.6544517278671265,0.045095108449459076,-0.023076627403497696,0.07180570065975189,-0.12506461143493652,-0.9895467758178711,0.006838098168373108,0.017047643661499023,-0.004090309143066406,0.33125885888688805,-0.013130432833603533,0.07109298777699873,0.9407662030475599,0.12539295819555538,0.07243726730773141,2.4599258610614196
1763355447068610560,0.7656106948852539,-0.6365259289741516,0.02052578330039978,-0.01553419791162014,0.07213844358921051,-0.11864093691110611,-0.9903132915496826,0.014134757220745087,0.01256183534860611,-0.007001161575317383,0.33130230751982376,-0.014356020246681958,0.06809749700013278,0.9409545793344429,0.11892104101583487,0.07271562798953951,2.460187922688709
1763355447078656768,0.7756567001342773,-0.6460627317428589,0.01143321767449379,-0.028963986784219742,0.07231292873620987,-0.11226505786180496,-0.9910435676574707,0.013212569057941437,-0.002984568476676941,0.0023351311683654785,0.331352145956051,-0.015497738486600238,0.06510012108804744,0.941130942488963,0.11250222746595069,0.07283736811199451,2.460438363226994
1763355447088702208,0.7857022285461426,-0.6541599035263062,0.0001037311740219593,-0.033171605318784714,0.0724102333188057,-0.1057482361793518,-0.9917530417442322,0.006050460040569305,0.007603704929351807,0.0021442770957946777,0.3314400239126801,-0.01662340614519328,0.06202538641567429,0.9412884606187897,0.10594632681278122,0.07288303798075477,2.460614255565877
1763355447098748160,0.795748233795166,-0.6520203351974487,-0.01446775533258915,-0.0337042361497879,0.07237355411052704,-0.09920229762792587,-0.9924318194389343,0.009688198566436768,0.02220645546913147,-0.0024869441986083984,0.33154472488754055,-0.01768932580146015,0.05891658997137403,0.9414318112591217,0.09936573340833373,0.0727966038163115,2.4607565489192007
1763355447108794112,0.8057942390441895,-0.5455096960067749,-0.011689212173223495,-0.017799217253923416,0.07225466519594193,-0.09300370514392853,-0.9930405616760254,0.012675754725933075,0.03900284320116043,-0.0029158592224121094,0.3316406849243987,-0.018659064488982077,0.0559602925483937,0.9415596946819201,0.0931383021612447,0.07263304425296371,2.460895295732765
1763355447118840320,0.8158402442932129,-0.4935133159160614,-0.020757807418704033,-0.028320567682385445,0.07206252217292786,-0.08797720819711685,-0.9935124516487122,0.01123521476984024,0.05205802619457245,-0.012270629405975342,0.3316930118861327,-0.01940165617213693,0.05354761035785045,0.9416666568264502,0.08809109847847331,0.07240628313268338,2.4610614998700244
1763355447128886272,0.8258862495422363,-0.46745264530181885,-0.03263607248663902,-0.02752685546875,0.07182393223047256,-0.08315840363502502,-0.9939446449279785,0.010222569108009338,0.07349959760904312,-0.01777404546737671,0.33179078894430436,-0.02008519784722649,0.051227443717862746,0.9417468874234693,0.08325454805379674,0.07213611649545414,2.4611168499687324
1763355447138932224,0.8359322547912598,-0.4581819176673889,-0.027823474258184433,-0.026071172207593918,0.07155763357877731,-0.07853017747402191,-0.9943402409553528,0.008642561733722687,0.05536733567714691,0.002946197986602783,0.3318775327185712,-0.020724699706100972,0.04899352981890884,0.9418213517733299,0.07861112117522419,0.07184108742186442,2.4611820166937917
1763355447148978176,0.8459782600402832,-0.44280195236206055,-0.011545367538928986,-0.02587267756462097,0.07138194888830185,-0.07400083541870117,-0.9947001934051514,0.0023179948329925537,0.01731444150209427,0.0028789639472961426,0.33195660555341294,-0.02139108731605807,0.046822218802405904,0.9418889759022605,0.07406854457263828,0.0716394653629072,2.461248564793075
1763355447159024128,0.8560242652893066,-0.40981337428092957,-0.006718388292938471,-0.023958932608366013,0.07132354378700256,-0.06972844153642654,-0.9950129985809326,-0.0032540932297706604,0.02173955738544464,0.004717648029327393,0.33202125339231475,-0.022070951066136716,0.04479248407159937,0.9419492600914496,0.06978507270410814,0.07155862515780093,2.4613231718766895
1763355447169071104,0.8660712242126465,-0.321670800447464,-0.0210312157869339,-0.024030037224292755,0.07118919491767883,-0.0659809559583664,-0.9952781796455383,0.002999037504196167,0.035554930567741394,0.00203782320022583,0.33208188379068204,-0.02262793194804293,0.04299880722472928,0.9419983122904593,0.06602892370273772,0.07140532943044706,2.461381064423831
1763355447179117312,0.8761172294616699,-0.25450775027275085,-0.023061076179146767,-0.02520262822508812,0.07098954170942307,-0.06308635324239731,-0.9954800605773926,0.008966505527496338,0.038611263036727905,-0.00021690130233764648,0.3321749847576177,-0.02301089965891805,0.04159875913998887,0.9420190245262,0.06312827575404055,0.07119135335496173,2.4613294603715086
1763355447189163264,0.8861632347106934,-0.20552757382392883,-0.030597157776355743,-0.025174574926495552,0.07075429707765579,-0.06078958883881569,-0.9956397414207458,0.007569067180156708,0.04513407126069069,0.0005683302879333496,0.33227238179475466,-0.0232776267680585,0.04047581070444752,0.9420270216637849,0.06082709228152425,0.07094488819425984,2.46124038675546
1763355447199209216,0.8962092399597168,-0.17765839397907257,-0.03581535443663597,-0.016821570694446564,0.07045935839414597,-0.058875251561403275,-0.9957756400108337,0.0055141448974609375,0.03302686661481857,0.0024437904357910156,0.3323590884943811,-0.023453176388417513,0.03952358453454395,0.9420325205639041,0.0589093175995977,0.0706405253481483,2.461157442885875
1763355447209255168,0.9062552452087402,-0.1837523728609085,-0.0390312522649765,-0.022107146680355072,0.07009442895650864,-0.05705900117754936,-0.9959071278572083,0.005757004022598267,0.01579924300312996,0.0037196874618530273,0.33245085353000103,-0.02357929908169434,0.03860627052051446,0.9420350406424954,0.057090009925723016,0.07026661884252418,2.4610609089855258
1763355447219301120,0.9163012504577637,-0.2002786099910736,-0.03566794842481613,-0.013269179500639439,0.06972768902778625,-0.05513809993863106,-0.9960410594940186,0.004414759576320648,0.014931194484233856,0.00363999605178833,0.3325222125916505,-0.023722961210218725,0.03763880282864522,0.942045393012675,0.0551660753622413,0.069890809997776,2.4610111381180455
1763355447229347328,0.9263472557067871,-0.22935064136981964,-0.02814302034676075,-0.011563869193196297,0.06942091137170792,-0.052980516105890274,-0.9961795806884766,0.0009221062064170837,0.017320729792118073,0.008737623691558838,0.33256829515967634,-0.023935436743453258,0.03656902016526681,0.9420658628098424,0.05300533312283532,0.06957466203784429,2.4610217423286342
1763355447239393280,0.9363932609558105,-0.25810879468917847,-0.0058321221731603146,-0.0022356146946549416,0.0692802295088768,-0.05052132532000542,-0.9963171482086182,-0.0007072314620018005,0.01681465655565262,0.011865854263305664,0.33257856079167664,-0.024277960999325564,0.035383754031976224,0.9420987718276408,0.050542840304925465,0.06942457062956758,2.461113889576005
1763355447249439232,0.946439266204834,-0.27897408604621887,0.009819508530199528,0.005563896149396896,0.06929296255111694,-0.04780290275812149,-0.9964503645896912,-0.0036191344261169434,0.008435230702161789,0.014272689819335938,0.33253962457011976,-0.024737831637544592,0.03410055060075464,0.9421478624732235,0.04782112784669458,0.06942802952772203,2.461314574670203
1763355447259485184,0.9564852714538574,-0.23119139671325684,0.018455607816576958,0.014721175655722618,0.06941956281661987,-0.045214079320430756,-0.9965624213218689,-0.005592048168182373,0.016420744359493256,0.0059618353843688965,0.33245796851270776,-0.025231254289228722,0.03289658162480442,0.9422064182808768,0.04522949708032148,0.06954667712772296,2.461595104700714
1763355447269532160,0.9665322303771973,-0.14996230602264404,0.022033032029867172,0.019020937383174896,0.06964867562055588,-0.04328469932079315,-0.9966320991516113,-0.0025252625346183777,0.04206399992108345,-0.003520488739013672,0.33234319249859406,-0.025664297261423764,0.032020386631885625,0.9422654727200335,0.04329822804959376,0.06977060759256204,2.461913544473151
1763355447279578112,0.9765782356262207,-0.06520295143127441,0.022404542192816734,0.022148821502923965,0.069880411028862,-0.04222681000828743,-0.9966612458229065,0.0008288174867630005,0.06256677210330963,-0.003399789333343506,0.3322265184246605,-0.025953548159109475,0.03155620618279531,0.9423142443192922,0.04223937048399216,0.06999995127049494,2.462198252712149
1763355447289624320,0.9866242408752441,-0.020157048478722572,0.02175193652510643,0.022583093494176865,0.07008987665176392,-0.04185936227440834,-0.9966620206832886,0.004510343074798584,0.05704185739159584,-0.0020562410354614258,0.33210982172198933,-0.02611742978452323,0.03141440170210908,0.9423555779148204,0.04187159746486968,0.07020902685821175,2.462454546618673
1763355447299670272,0.9966702461242676,-0.011519618332386017,0.017501797527074814,0.025940539315342903,0.07060595601797104,-0.04163966327905655,-0.9966347813606262,0.004390984773635864,0.03620753809809685,-0.002434372901916504,0.3319936315852282,-0.026401519915977598,0.031393574482334666,0.9423892919763437,0.04165170620615404,0.0707261927390291,2.4626932655962377
1763355447309716224,1.006716251373291,-0.0338556170463562,0.00930491928011179,0.02635306306183338,0.07075835019350052,-0.04110463336110115,-0.9966462254524231,0.004116520285606384,0.00997670367360115,0.005999863147735596,0.3318724621309083,-0.026566376556608984,0.031162855558423318,0.9424349949081055,0.0411162174556315,0.07087753410069712,2.4629682621564224
1763355447319762176,1.0167622566223145,-0.0796382799744606,0.007033509202301502,0.025656646117568016,0.07075797021389008,-0.040152259171009064,-0.9966850876808167,0.0038117319345474243,-0.007272060960531235,0.00712209939956665,0.33174326206364385,-0.026728549481353902,0.03070920727417931,0.9424907876586994,0.04016305428580042,0.07087439661435876,2.4632831588332533
1763355447329808128,1.026808261871338,-0.151916041970253,0.002744055585935712,0.0249013751745224,0.070543572306633,-0.03902455419301987,-0.9967450499534607,0.004132941365242004,-0.009162701666355133,0.007227838039398193,0.33159874017008795,-0.026819090699893303,0.030136572651900274,0.9425575481817776,0.03903446666146913,0.07065612381913444,2.463644678797991
1763355447339854336,1.0368542671203613,-0.1943894624710083,0.004267916548997164,0.03026524931192398,0.07020185887813568,-0.03682892024517059,-0.996852695941925,0.006000526249408722,-0.01248747855424881,0.011760592460632324,0.33145488562312153,-0.02702639232603723,0.02903821532584789,0.9426367946421169,0.036837251568712266,0.07030742749787351,2.464053163731202
1763355447349900288,1.0469002723693848,-0.205925852060318,0.012622086331248283,0.034510593861341476,0.07010410726070404,-0.0331910066306591,-0.9969873428344727,0.0028939396142959595,-0.012249663472175598,0.009163856506347656,0.3313125011060247,-0.027587616251705176,0.027299257081195617,0.9427225603489121,0.03319710391200897,0.07020039833547244,2.46450879811402
1763355447359947264,1.0569472312927246,-0.20533302426338196,0.015259414911270142,0.028646310791373253,0.0702669695019722,-0.028733329847455025,-0.9971143007278442,-0.0021517351269721985,0.004883842542767525,0.005994915962219238,0.33118080990650306,-0.028406956759675438,0.02521684593035267,0.9428024234921377,0.028737284214419626,0.0703540146332866,2.464964801693062
1763355447369993216,1.066993236541748,-0.13669565320014954,0.004697317723184824,0.028716886416077614,0.07052838802337646,-0.02519211918115616,-0.9971916079521179,0.003263115882873535,0.01969895511865616,0.00205916166305542,0.33105507725533767,-0.029120350885916593,0.023583918726887247,0.9428670515354118,0.02519478523081266,0.07060943988030059,2.4653665278118546
1763355447380039168,1.0770392417907715,-0.07893966883420944,0.003100220113992691,0.026392744854092598,0.07073377072811127,-0.02339422143995762,-0.9972208738327026,0.008138909935951233,0.02656804956495762,0.0018290281295776367,0.33091547527890314,-0.029518539581685984,0.022764564313735452,0.9429239209364465,0.02339635579983645,0.07081229639249144,2.465729136004965
1763355447390085120,1.087085247039795,-0.04870770126581192,-0.0037270933389663696,0.025835610926151276,0.0708903968334198,-0.023078646510839462,-0.9972171187400818,0.0054188072681427,0.037467680871486664,0.003290116786956787,0.33077590089963443,-0.029648146566516077,0.022637172636790374,0.9429717990494744,0.023080695229938965,0.07096883939632914,2.46603371217412
1763355447400131328,1.0971312522888184,-0.051074717193841934,-0.015470034442842007,0.017816834151744843,0.07094183564186096,-0.02343725599348545,-0.9972050786018372,0.007488340139389038,0.0218198262155056,0.0010655522346496582,0.33065134089874726,-0.029616117822935096,0.02281119221394216,0.9430123891716997,0.02343940182896021,0.07102101675795999,2.466282605597246
1763355447410177280,1.1071772575378418,-0.06634931266307831,-0.02180592715740204,0.01572296768426895,0.07089248299598694,-0.023713668808341026,-0.9972020387649536,0.008575282990932465,0.0016342047601938248,0.0032140612602233887,0.3305493140255151,-0.029549551911324343,0.022930363004594362,0.9430473583991538,0.02371589136811933,0.07097199268465366,2.466489220167565
1763355447420223232,1.1172232627868652,-0.08036872744560242,-0.023521270602941513,0.019051119685173035,0.07086262851953506,-0.023883245885372162,-0.9972001314163208,0.006835125386714935,0.001452827826142311,0.006950497627258301,0.33044375792361763,-0.029509971588986494,0.02300220524821693,0.943083860844704,0.02388551637164994,0.07094233677085189,2.466707109749811
1763355447430269184,1.1272692680358887,-0.0649634301662445,-0.02600490115582943,0.01092412881553173,0.07072898745536804,-0.023919573053717613,-0.9972087144851685,0.003978043794631958,0.019433490931987762,0.001511693000793457,0.3303486252556558,-0.029443131983508095,0.02299420897102842,0.943119405986798,0.023921854565874694,0.0708083866084891,2.4669105570202055
1763355447440315136,1.137315273284912,-0.04100537300109863,-0.029629996046423912,0.009160851128399372,0.0703791156411171,-0.02336951158940792,-0.997246503829956,0.004312649369239807,0.04142066091299057,0.00286179780960083,0.3303028936466866,-0.029369793998403285,0.02267485207686455,0.9431454455910968,0.02337163871507744,0.07045661770697337,2.4670377768678136
1763355447450361344,1.1473612785339355,-0.019778113812208176,-0.03651906177401543,0.003146190196275711,0.07015745341777802,-0.022584224119782448,-0.9972802400588989,0.005739763379096985,0.0490582250058651,0.00022518634796142578,0.33027779661847345,-0.029395400833578944,0.022266306301165457,0.9431631989550574,0.0225861452013944,0.07023307774027499,2.4671271742597596
1763355447460408320,1.1574082374572754,0.020102988928556442,-0.03107422962784767,0.0025288695469498634,0.07005172222852707,-0.02187081053853035,-0.9973036050796509,0.003861851990222931,0.03691597655415535,0.002827286720275879,0.3302785251908483,-0.029463301895578456,0.0219117669949102,0.9431690972038179,0.02187255515642773,0.07012594553709825,2.4671559078676264
1763355447470454272,1.1674542427062988,0.04062177985906601,-0.020528044551610947,-0.0036291582509875298,0.06997586786746979,-0.021177418529987335,-0.9973238706588745,0.0018930286169052124,0.021360523998737335,0.004480242729187012,0.33031183865616404,-0.029541267620075376,0.021572669656674582,0.9431627993643247,0.021179001430358176,0.07004883479731495,2.467113954141971
1763355447480500224,1.1775002479553223,0.07853880524635315,-0.018947191536426544,-0.0015854486264288425,0.0700400322675705,-0.02114998549222946,-0.9973199367523193,-6.32256269454956e-05,0.02148567885160446,0.005086660385131836,0.33035566932204485,-0.029575122828772882,0.021571731424695324,0.9431464438490469,0.021151561692822993,0.07011313201667456,2.467020667628915
1763355447490546176,1.1875462532043457,0.12298326939344406,-0.020675083622336388,-0.008774918504059315,0.07017982751131058,-0.022166071459650993,-0.9972880482673645,0.0014601871371269226,0.027674494311213493,0.001636803150177002,0.3303977744700694,-0.02947226557038435,0.022076234099789246,0.9431231241284016,0.022167887401918978,0.07025485393443402,2.4668883516584454
1763355447500592128,1.1975922584533691,0.17907768487930298,-0.02376408502459526,-0.011639414355158806,0.07024800032377243,-0.02364572137594223,-0.9972492456436157,0.005664467811584473,0.03940805047750473,-0.004413902759552002,0.33047343378889565,-0.02925806464216399,0.022788870083739178,0.943086397492524,0.023647924624645673,0.07032559839643962,2.4666683614783707
1763355447510638336,1.2076382637023926,0.2289445549249649,-0.01104106567800045,-0.008187957108020782,0.07024654000997543,-0.024943120777606964,-0.9972177743911743,0.0031329765915870667,0.048640020191669464,-0.0015615224838256836,0.33056655509049476,-0.029040558083100847,0.02340438423214257,0.9430454147225983,0.024945707138651803,0.07032636174053318,2.4664196880611082
1763355447520684288,1.217684268951416,0.2741312086582184,0.0038705060724169016,-0.002813964616507292,0.07036752253770828,-0.02583300694823265,-0.9971866011619568,-0.00048226863145828247,0.05129992216825485,0.0006961226463317871,0.33065783950589556,-0.028948245839108218,0.023847664066763377,0.9430050685979001,0.02583588143981839,0.07044927072470143,2.466187566136634
1763355447530730240,1.2277302742004395,0.3112941086292267,0.013174425810575485,-0.0014250371605157852,0.07063303887844086,-0.026872290298342705,-0.9971403479576111,-0.002151593565940857,0.049348488450050354,0.001794278621673584,0.33075196068781837,-0.028899348893140463,0.02438561872343904,0.942959935422252,0.02687552551641207,0.07071748314386109,2.4659398173657756
1763355447540776192,1.237776279449463,0.32854846119880676,0.011151222512125969,-0.0026807175017893314,0.07086430490016937,-0.028572961688041687,-0.9970766305923462,-0.0035730525851249695,0.050270963460206985,0.005865752696990967,0.3308382734642256,-0.0287248989490016,0.025230093774454353,0.9429127452396991,0.028576851343785913,0.07095277088379386,2.465681953549642
1763355447550822144,1.2478222846984863,0.32887518405914307,0.005255849100649357,-0.00348774460144341,0.07096479833126068,-0.030839141458272934,-0.9970020055770874,0.00040055811405181885,0.038056548684835434,0.0034412145614624023,0.33092693468759415,-0.028394810603696963,0.026320057081672423,0.9428618591571605,0.030844031005425137,0.07105835308165602,2.4653987019575574
1763355447560869120,1.2578692436218262,0.3182126581668854,0.0044949837028980255,-0.0003915536217391491,0.07095780223608017,-0.03296169638633728,-0.9969345331192017,0.0038102567195892334,0.013567782938480377,0.0006119608879089355,0.33100095902590265,-0.028037941679135182,0.02732386985703064,0.9428179352800208,0.03296766954390144,0.07105615954615004,2.465154245113643
1763355447570915328,1.2679152488708496,0.3380686342716217,0.0017181392759084702,0.004916748031973839,0.07098187506198883,-0.03492371365427971,-0.9968660473823547,0.0012074559926986694,0.002849739044904709,0.00026875734329223633,0.3310762214301477,-0.027722143560211694,0.028257056736096617,0.9427733127802073,0.03493081600578133,0.07108505145231907,2.4649121871345367
1763355447580961280,1.277961254119873,0.3842017650604248,-0.0046811699867248535,0.009416958317160606,0.07108013331890106,-0.03682990372180939,-0.9967904090881348,0.003626883029937744,0.008143384009599686,0.000605165958404541,0.33114375356747977,-0.027450729869836397,0.029176014416790873,0.9427295169840497,0.0368382358599755,0.07118850662722552,2.464685818443667
1763355447591007232,1.2880072593688965,0.46197810769081116,-0.020726483315229416,0.03136016055941582,0.07101310044527054,-0.03917715325951576,-0.9967057108879089,0.007539145648479462,0.017631743103265762,-0.0072005391120910645,0.33112267557489694,-0.02703084064837458,0.030273324154632835,0.9427144918137762,0.03918718300177918,0.0711276175235053,2.46463322172809
1763355447601053184,1.29805326461792,0.4214663505554199,-0.020829547196626663,0.017077894881367683,0.07064586877822876,-0.04141336306929588,-0.9966413974761963,0.012316159904003143,0.01651102304458618,-0.017121970653533936,0.3311373744765708,-0.02648638038376154,0.03126928302380775,0.9426923002360574,0.04142521068723168,0.07076557761553696,2.4645186233457883
1763355447611099136,1.3080992698669434,0.4174754321575165,-0.0296015664935112,0.02369789406657219,0.07020244747400284,-0.04379170760512352,-0.9965710639953613,0.004092589020729065,0.008116662502288818,0.018955767154693604,0.3311355078874652,-0.025882900522665748,0.03231932762113326,0.9426743463710568,0.04380571601192312,0.07032781688668585,2.464435588553608
1763355447621145344,1.3181452751159668,0.38712286949157715,-0.02834295481443405,0.02344489097595215,0.06989787518978119,-0.047823715955019,-0.996407151222229,0.000765576958656311,-0.020001601427793503,0.007897019386291504,0.3310773902689649,-0.025073025799430226,0.03417273343027739,0.942651237606269,0.04784196347739091,0.0700351846298644,2.464394915241523
1763355447631191296,1.3281912803649902,0.3740054666996002,-0.016581904143095016,0.0224456749856472,0.06966114789247513,-0.05164279043674469,-0.9962331056594849,-0.002629287540912628,-0.01860867813229561,0.010576367378234863,0.3310189611769742,-0.024330643883694165,0.035937175846877036,0.9426255154927542,0.05166577151003949,0.06981091415047966,2.464359880184056
1763355447641237248,1.3382372856140137,0.35115501284599304,-0.013479323126375675,0.025298718363046646,0.06949849426746368,-0.055313628166913986,-0.9960473775863647,-0.003321126103401184,-0.011123143136501312,0.008590102195739746,0.33095641588796104,-0.023648116250294508,0.03764414932049259,0.942598260362126,0.05534187287568861,0.06966138265665407,2.464335670308752
1763355447651282944,1.348283052444458,0.33105769753456116,-0.014462262392044067,0.02928653545677662,0.06934221088886261,-0.058783434331417084,-0.9958595037460327,0.0016569346189498901,-0.013909433037042618,0.007593512535095215,0.33087160551602546,-0.02300296521672918,0.039256947413003264,0.942578274963696,0.058817342515631615,0.06951830717722707,2.464365714374362
1763355447661330176,1.358330249786377,0.29372790455818176,-0.010839298367500305,0.02376633509993553,0.06921743601560593,-0.06192101165652275,-0.9956780076026917,-0.0004918575286865234,-0.01858435571193695,0.011379361152648926,0.3307854580623045,-0.02242798720992286,0.04071819538791839,0.942560361555024,0.061960648025396005,0.06940622805152016,2.464410638738774
1763355447671376128,1.3683762550354004,0.22865436971187592,-0.010885370895266533,0.020781997591257095,0.06910548359155655,-0.06457127630710602,-0.9955174326896667,-0.002714492380619049,-0.025837048888206482,0.017047584056854248,0.3307093064086663,-0.021939505791008698,0.04195158496986281,0.9425445061524269,0.06461622989936683,0.06930546696402774,2.464454989979705
1763355447681422336,1.3784222602844238,0.1525132656097412,-0.02585473470389843,0.011328041553497314,0.06891445815563202,-0.06650716811418533,-0.9954032301902771,0.001031830906867981,-0.04509561508893967,0.0216636061668396,0.3306629709934792,-0.02153074435433842,0.04283469653647762,0.9425304253461001,0.0665562966733563,0.06912240839542227,2.46447192256594
1763355447691468288,1.3884682655334473,0.07505405694246292,-0.04576122760772705,0.0066610295325517654,0.0685647577047348,-0.06763722747564316,-0.995351254940033,0.005516663193702698,-0.05768320709466934,0.014790952205657959,0.3306367853419487,-0.021179579171930234,0.043310599448077663,0.9425258727972775,0.06768890266940834,0.06877634038966066,2.4644909710322014
1763355447701514240,1.3985142707824707,0.03351673111319542,-0.048332780599594116,0.005593901500105858,0.06808282434940338,-0.06816975772380829,-0.9953479766845703,0.007600769400596619,-0.04898722469806671,0.009706497192382812,0.3306304348634429,-0.02086398783584731,0.043482191183369476,0.9425272126175777,0.06822266768100611,0.06829464917721882,2.464501899887386
1763355447711560192,1.4085602760314941,0.015000838786363602,-0.04434628784656525,0.003994406200945377,0.06763070076704025,-0.06841990351676941,-0.9953616261482239,0.0030327364802360535,-0.029236339032649994,0.014175772666931152,0.3306270981617631,-0.020609110004345416,0.04352519054661331,0.9425319426115372,0.06847339925135129,0.06784158906403329,2.4645182240623145
1763355447721606144,1.4186062812805176,0.008169564418494701,-0.034178078174591064,0.003092660568654537,0.06724467128515244,-0.0685315653681755,-0.9953801035881042,-0.0011436119675636292,-0.013118214905261993,0.016360998153686523,0.33062314013682004,-0.02040842096853248,0.043513648737820446,0.9425382241447632,0.06858531959191914,0.06745428244410812,2.4645393577806276
1763355447731652352,1.428652286529541,-0.004476189613342285,-0.0335644856095314,-0.0045034741051495075,0.06691554188728333,-0.06857647001743317,-0.9953991770744324,-0.002859160304069519,-0.017010077834129333,0.014442205429077148,0.33063828032869474,-0.020244790813466248,0.04348040886616473,0.9425379667213966,0.06863033021001813,0.06712383755135459,2.464520405912225
1763355447741698048,1.4386980533599854,-0.03821923956274986,-0.04423310607671738,-0.005570602603256702,0.06660483777523041,-0.06858256459236145,-0.9954196214675903,0.00035072118043899536,-0.02478596568107605,0.011014103889465332,0.33066042383656646,-0.0200959726556634,0.043432020766775915,0.9425356023403189,0.06863644395146279,0.06681172986237656,2.4644875080139674
1763355447751745280,1.4487452507019043,-0.06705541908740997,-0.04923638701438904,-0.007978366687893867,0.0661948174238205,-0.0685952752828598,-0.9954460859298706,0.004377081990242004,-0.0324026495218277,0.011284708976745605,0.3306780731037835,-0.01989934956775544,0.043370113023092884,0.9425365199820491,0.068649181569242,0.06639988503273965,2.4644686053457003
1763355447761791232,1.4587912559509277,-0.10543689131736755,-0.05665036290884018,-0.008201539516448975,0.06595450639724731,-0.06918224692344666,-0.9954214096069336,0.0037323832511901855,-0.035325199365615845,0.007155418395996094,0.3306949080441172,-0.019687815712637283,0.04360820528590987,0.9425240967434836,0.06923755346922068,0.06616116562322412,2.4644173068199517
1763355447771837184,1.4688372611999512,-0.138710156083107,-0.06081927567720413,-0.012050872668623924,0.06585495918989182,-0.07001201063394547,-0.9953700304031372,0.002321310341358185,-0.028910726308822632,0.004326939582824707,0.33070492209956764,-0.01950286810462124,0.04398450645043086,0.9425068502274261,0.07006933093435637,0.0660650021840427,2.464362658266006
1763355447781883136,1.4788832664489746,-0.16278433799743652,-0.06388802826404572,-0.013116581365466118,0.065728560090065,-0.07018023729324341,-0.9953665137290955,0.0026460736989974976,-0.017649352550506592,0.007253110408782959,0.3307313158351084,-0.01941405147377589,0.044043606596023153,0.9424966746256109,0.07023797337323277,0.06593879597998113,2.464304918056545
1763355447791929344,1.488929271697998,-0.1684742122888565,-0.05672888830304146,-0.01575799286365509,0.06539857387542725,-0.06953659653663635,-0.9954333901405334,0.000626198947429657,-0.0048957690596580505,0.010188698768615723,0.33077522858161124,-0.01936276468267627,0.04368495213486674,0.9424989755405464,0.06959276056128652,0.06560430890269708,2.4642563971621207
1763355447801975296,1.4989752769470215,-0.15048855543136597,-0.04368153214454651,-0.010686269029974937,0.0649888813495636,-0.0684065893292427,-0.9955385327339172,-0.0029619038105010986,0.005525119602680206,0.008783161640167236,0.33082582127146026,-0.0193541485326613,0.04308302414327921,0.9425092082019155,0.06846005343682088,0.06518763085878143,2.464219221622198
1763355447812021248,1.509021282196045,-0.09540446102619171,-0.02966378629207611,-0.0053193774074316025,0.06464788317680359,-0.0678107738494873,-0.9956014752388,-0.005214899778366089,0.017197370529174805,0.005458652973175049,0.3308468424667377,-0.019290849134520466,0.04274473491711759,0.9425184706134491,0.06786284819679407,0.06484246349170268,2.464216803303558
1763355447822067200,1.5190672874450684,-0.03891855478286743,-0.0008744816295802593,-0.0008681700564920902,0.06458144634962082,-0.06780844926834106,-0.9956059455871582,-0.007299959659576416,0.03460533171892166,-0.0029901862144470215,0.33084311697870894,-0.019260018512424693,0.042732488223938624,0.9425209997451469,0.06786051744907526,0.06477571841032631,2.464227904665132
1763355447832113152,1.5291130542755127,0.011592959053814411,0.014879846945405006,0.008238331414759159,0.06476519256830215,-0.06830839067697525,-0.9955598711967468,-0.008216120302677155,0.04189542680978775,-0.002151310443878174,0.330810517003414,-0.01926545527401339,0.04299898003193834,0.9425202411562924,0.06836162103422909,0.06496250393057926,2.4642663777221223
1763355447842160128,1.5391602516174316,0.033842869102954865,0.02344031259417534,0.012876491993665695,0.06504867970943451,-0.06912637501955032,-0.9954848885536194,-0.006485454738140106,0.03140665590763092,0.0014053583145141602,0.3307520745376254,-0.019266517476278156,0.043432064270242696,0.9425208983826614,0.069181546826269,0.06525094989776738,2.4643405925554993
1763355447852206336,1.549206256866455,0.050028663128614426,0.028917469084262848,0.014664983376860619,0.06536795198917389,-0.07009884715080261,-0.9953960180282593,-0.005858674645423889,0.023147553205490112,0.0033305883407592773,0.33067948968070254,-0.019259600823000638,0.04394395422498688,0.9425227662877316,0.07015638114802773,0.06557614023888675,2.4644356728717245
1763355447862252288,1.5592522621154785,0.06756264716386795,0.033230192959308624,0.01967172510921955,0.06573223322629929,-0.07106204330921173,-0.9953036904335022,-0.003552667796611786,0.018388710916042328,-0.004131734371185303,0.33059719146508776,-0.019276012784621505,0.04445879141952115,0.9425271605329193,0.07112199017138235,0.06594662279104432,2.4645491817961944
1763355447872298240,1.569298267364502,0.09637908637523651,0.036986082792282104,0.01812434010207653,0.06608616560697556,-0.07196024805307388,-0.9952157139778137,-7.66366720199585e-05,0.028198041021823883,-0.0035788416862487793,0.33050337434718174,-0.019298930159365808,0.04494093619298232,0.9425367681481337,0.07202249661777742,0.06630651423857536,2.464690146633593
1763355447882344192,1.5793442726135254,0.1309136152267456,0.05031520128250122,0.021388575434684753,0.06644342839717865,-0.07294929772615433,-0.9951199293136597,-0.00380609929561615,0.03898322582244873,0.001482844352722168,0.33041449366997155,-0.019308234382092653,0.04546678153006669,0.942542361531317,0.07301415088396847,0.06667030613582332,2.464815382519767
1763355447892390144,1.5893902778625488,0.15124526619911194,0.062381722033023834,0.024080146104097366,0.06686870753765106,-0.07396183907985687,-0.9950166940689087,-0.005818292498588562,0.03912602365016937,0.006888031959533691,0.33031346710590925,-0.019346475960112488,0.046014851898199316,0.9425504580334677,0.07402943579915112,0.06710270835985564,2.4649618082490354
1763355447902436352,1.5994362831115723,0.15683309733867645,0.07239946722984314,0.02536751702427864,0.06732568144798279,-0.07468453794717789,-0.9949318766593933,-0.006321042776107788,0.027779020369052887,0.0023323893547058105,0.33020568808234224,-0.01944809287003038,0.04643086263667275,0.9425657275178075,0.07475414170175898,0.06756563031404256,2.465133916272443
1763355447912482304,1.6094822883605957,0.1677926480770111,0.06981396675109863,0.0263382401317358,0.06772736459970474,-0.075118288397789,-0.994871973991394,-0.003930367529392242,0.010115846991539001,0.006590723991394043,0.33010965520335656,-0.01957089032485204,0.046701098446325785,0.9425834876564875,0.07518911449105185,0.06797158774268147,2.4652971825653833
1763355447922528000,1.61952805519104,0.1626112014055252,0.07026217877864838,0.02204975113272667,0.06811892241239548,-0.07562950998544693,-0.9948065280914307,-0.0026739761233329773,-0.00888892263174057,0.004556894302368164,0.33000758993533796,-0.019676450256344784,0.047006203254301736,0.9426018450241471,0.07570179608827242,0.06836782606613469,2.4654697418525178
1763355447932575232,1.629575252532959,0.15667591989040375,0.06294477730989456,0.019518326967954636,0.06846971809864044,-0.07630638778209686,-0.9947307109832764,-0.0013920888304710388,-0.01042456179857254,0.0034893155097961426,0.3299289396416236,-0.01973424625712005,0.047383461828962206,0.9426093377383251,0.07638063505886869,0.06872401744117841,2.465586555663478
1763355447942621184,1.6396212577819824,0.15554992854595184,0.04782867431640625,0.015831179916858673,0.06878026574850082,-0.07710309326648712,-0.9946478605270386,0.001608528196811676,-0.004470393061637878,0.006305575370788574,0.3298585875489148,-0.01975285107832519,0.04781097431253616,0.9426119282796132,0.0771796942290913,0.06904046336540659,2.4656814463889756
1763355447952667136,1.6496672630310059,0.14353302121162415,0.02594035491347313,0.00817938707768917,0.06900950521230698,-0.07758545875549316,-0.9945944547653198,0.00742175430059433,-0.002019636332988739,0.0033683180809020996,0.3298334280820678,-0.01978273614784599,0.04807704644168846,0.9426065267663553,0.07766350942944368,0.06927354240390181,2.4656995787699616
1763355447962713344,1.6597132682800293,0.11631178110837936,0.008391454815864563,0.0041774543933570385,0.06895311176776886,-0.0775693953037262,-0.9945996403694153,0.00894300639629364,-0.004004091024398804,0.003266632556915283,0.32984348760184007,-0.019758224787281734,0.048060263933160076,0.94260445434686,0.07764739487495212,0.06921675405941585,2.4656820526481873
1763355447972759296,1.6697592735290527,0.08528901636600494,-0.0032671988010406494,0.002035031095147133,0.06874345988035202,-0.0774514228105545,-0.9946233630180359,0.00715375691652298,-0.009508416056632996,0.008508861064910889,0.32986107701077727,-0.01967774562802275,0.047969888113706935,0.9426045275751909,0.07752906743069539,0.06900533212634716,2.4656610942106214
1763355447982805248,1.6798052787780762,0.0782923623919487,0.007939649745821953,0.000611837487667799,0.06853761523962021,-0.07749860733747482,-0.9946338534355164,0.0034075677394866943,-0.01295548677444458,0.012944459915161133,0.32987039745727875,-0.019572184716489957,0.04795819308549422,0.9426040494699139,0.07757639227298235,0.06879862969739751,2.46564954379013
1763355447992851200,1.6898512840270996,0.08503411710262299,0.007758055813610554,-0.0008165938779711723,0.06847210228443146,-0.07795489579439163,-0.9946027398109436,-0.0007535964250564575,-0.005998961627483368,0.009251177310943604,0.3298821505939965,-0.0194651837647966,0.04816365722095124,0.9425917300968727,0.07803406818310617,0.06873521933003374,2.465605946598577
1763355448002897152,1.699897289276123,0.10583660006523132,0.009159144945442677,0.00554303452372551,0.06845538318157196,-0.07907790690660477,-0.9945152401924133,-0.0011336058378219604,0.008856959640979767,0.0004051327705383301,0.3298756621600468,-0.019271933734085867,0.04869267555968215,0.9425708106654462,0.07916055484532167,0.06872451273331788,2.4655660295766997
1763355448012943104,1.7099430561065674,0.14025099575519562,0.012792262248694897,0.007846314460039139,0.06849882751703262,-0.08053044974803925,-0.9943956732749939,0.0008065924048423767,0.014368340373039246,4.1425228118896484e-05,0.32984760084996295,-0.019053751577660566,0.049387417890974804,0.9425489609359938,0.08061774739853442,0.06877623669773861,2.4655524084970324
1763355448022990336,1.7199902534484863,0.17302092909812927,0.02319030836224556,0.013544414192438126,0.06873209774494171,-0.08213286846876144,-0.9942485094070435,0.0003749653697013855,0.012873232364654541,0.001252293586730957,0.3297998630899754,-0.01890156378954726,0.050184437388019185,0.9425266308006702,0.0822254946291534,0.06901988768216123,2.465562446672626
1763355448033036288,1.7300362586975098,0.20284155011177063,0.031731732189655304,0.022301509976387024,0.06922782957553864,-0.08395057171583176,-0.9940623044967651,-0.0030199438333511353,0.011410288512706757,0.0010966062545776367,0.3297295922213447,-0.018839111136380364,0.05112680334739274,0.9425017081226957,0.08404949788947577,0.0695290815607149,2.465594161675173
1763355448043082240,1.7400822639465332,0.21217699348926544,0.032709911465644836,0.02515242248773575,0.06980770826339722,-0.08596190810203552,-0.9938498139381409,-0.002928435802459717,0.0066162049770355225,0.0014944672584533691,0.32963435517075407,-0.01878590694238034,0.052174587615777715,0.9424786590270049,0.08606813223546676,0.07012452260099322,2.4656629739429783
1763355448053128192,1.7501282691955566,0.20742537081241608,0.04340410232543945,0.02800937369465828,0.07037176191806793,-0.08809912204742432,-0.9936228394508362,-0.001402042806148529,0.0015512779355049133,0.003266453742980957,0.32951738496223787,-0.01870581244530028,0.053279166974757736,0.9424594002250242,0.08821348548588476,0.07070535232880983,2.46577040079365
1763355448063174144,1.76017427444458,0.19996079802513123,0.05072246491909027,0.031183060258626938,0.07089948654174805,-0.09022753685712814,-0.9933943152427673,-0.003211498260498047,-0.0016914084553718567,0.006349027156829834,0.3293843352836235,-0.018611146564271583,0.05437342841697759,0.9424453932919222,0.09035040850207247,0.07125012974521704,2.4659124841845936
1763355448073220352,1.7702202796936035,0.18759261071681976,0.05183586850762367,0.02889123186469078,0.07129726558923721,-0.09200998395681381,-0.9932023286819458,-0.0014730468392372131,-0.003372699022293091,0.0028916597366333008,0.3292484210283694,-0.018512613773638557,0.05528217757780978,0.9424419243271823,0.09214030661126006,0.07166231241978147,2.4660842430387606
1763355448083266304,1.780266284942627,0.17739324271678925,0.05128512531518936,0.03039512038230896,0.07165728509426117,-0.0932205319404602,-0.9930635094642639,-0.00026141852140426636,0.000401325523853302,0.005591034889221191,0.3291341655535387,-0.018489619488175246,0.05591396325588731,0.9424449098848428,0.09335607533157979,0.07203296154955215,2.466241181411027
1763355448093312256,1.7903122901916504,0.17122569680213928,0.05351598933339119,0.028909699991345406,0.07207610458135605,-0.09424655139446259,-0.992936372756958,-0.0015347227454185486,0.0059134215116500854,0.010392427444458008,0.32902025557371056,-0.018525011733643588,0.05646806090331109,0.9424509939233653,0.09438663550052295,0.07246175222631984,2.4664032193373586
1763355448103358208,1.8003582954406738,0.16244792938232422,0.046569667756557465,0.021907715126872063,0.07245738059282303,-0.09522122889757156,-0.9928156137466431,0.0009526461362838745,0.00020474940538406372,0.004122376441955566,0.3289226280254528,-0.018550267942065126,0.056991933816069026,0.942452987246993,0.09536571756051511,0.07285255057786849,2.4665349062003474
1763355448113404160,1.8104043006896973,0.17086054384708405,0.042672961950302124,0.020038798451423645,0.07266837358474731,-0.09632226079702377,-0.9926939606666565,0.0038086846470832825,-0.008353032171726227,0.004931509494781494,0.3288365475923523,-0.018473527246067132,0.05754772214117052,0.9424508512005761,0.09647182886251794,0.07307285636749469,2.4666453975039446
1763355448123451136,1.820451259613037,0.15494415163993835,0.03333059325814247,0.016729554161429405,0.07284806668758392,-0.09749757498502731,-0.9925660490989685,0.0035984590649604797,-0.01410520076751709,0.011364936828613281,0.32877015754521544,-0.018368596250906376,0.0581340265589491,0.9424400249847152,0.09765270385451229,0.07326231370492867,2.4667112492589447
1763355448133497344,1.8304972648620605,0.13283972442150116,0.017841849476099014,0.00905698724091053,0.07300107926130295,-0.09867951273918152,-0.992438018321991,0.002316303551197052,-0.02130035310983658,0.011297881603240967,0.32871636504838725,-0.01824923062599636,0.05871935589636698,0.9424247664022207,0.09884036589501996,0.07342508431859461,2.4667511964404327
1763355448143543296,1.840543270111084,0.08514783531427383,0.001540107186883688,0.005802604369819164,0.07293132692575455,-0.09959547221660614,-0.9923516511917114,0.006368592381477356,-0.03715379536151886,0.007549405097961426,0.3286919125045695,-0.018066600006189305,0.05914204583209855,0.9424104493209583,0.09976086488169246,0.07336154185414115,2.4667573771968003
1763355448153589248,1.8505892753601074,0.03598225489258766,-0.010556602850556374,-0.0007757586427032948,0.0728214904665947,-0.10010924190282822,-0.9923080205917358,0.007409229874610901,-0.04317078739404678,0.01411283016204834,0.328689519101833,-0.017930004159642837,0.05936761289540347,0.9423997529852202,0.10027721065766726,0.07325465591417078,2.4667412733973166
1763355448163635200,1.8606352806091309,-0.022807825356721878,-0.02305828034877777,-0.007795052137225866,0.07263321429491043,-0.10002746433019638,-0.9923300743103027,0.005674891173839569,-0.04088745266199112,0.013585567474365234,0.32871853361146214,-0.017852629162279074,0.05929806229544835,0.942395443628571,0.10019502686278077,0.07306432256003598,2.4666960629140027
1763355448173681152,1.8706812858581543,-0.07960030436515808,-0.03426829352974892,-0.008842650800943375,0.07233210653066635,-0.09930827468633652,-0.9924242496490479,0.0036719217896461487,-0.037746161222457886,0.012565910816192627,0.3287701064822002,-0.017825701871046033,0.0589076248876217,0.9424025419091382,0.09947223566830216,0.07275561028465115,2.466645152418031
1763355448183727360,1.8807272911071777,-0.13071808218955994,-0.036727987229824066,-0.013008899986743927,0.07202722132205963,-0.09817517548799515,-0.9925591945648193,0.004373535513877869,-0.03244005888700485,0.012639760971069336,0.3288264177225023,-0.017865065972263016,0.05832025930095556,0.9424185605717231,0.09833357436919667,0.07244020468547498,2.466606126406295
1763355448193773312,1.8907732963562012,-0.17583905160427094,-0.04210693761706352,-0.016927387565374374,0.07179808616638184,-0.09682758152484894,-0.992708146572113,0.003198862075805664,-0.027089037001132965,0.013444840908050537,0.3288927073337094,-0.017975107245208163,0.057643950837620785,0.9424349518503187,0.09697952910322201,0.0721997593775756,2.4665524119165974
1763355448203819264,1.9008193016052246,-0.21647195518016815,-0.05834236741065979,-0.01809811219573021,0.07148348540067673,-0.09530893713235855,-0.9928777813911438,0.0036660507321357727,-0.03141529858112335,0.009052157402038574,0.3289691500315038,-0.018072429702382285,0.05687256368168943,0.9424533567748442,0.09545382090014223,0.07187224271446423,2.4664909457020756
1763355448213866240,1.9108662605285645,-0.24006417393684387,-0.06701861321926117,-0.020325491204857826,0.07100912928581238,-0.09366500377655029,-0.993068277835846,0.004354029893875122,-0.03225052356719971,0.009410440921783447,0.32904083415395824,-0.01811527752327682,0.056015233923946195,0.942478737862703,0.09380250132839288,0.07138328498442822,2.4664544486855626
1763355448223912192,1.920912265777588,-0.2533685266971588,-0.08060739189386368,-0.020300457254052162,0.07053890824317932,-0.09233439713716507,-0.9932263493537903,0.005358308553695679,-0.027416571974754333,0.007645905017852783,0.3291102740574643,-0.018108566568424765,0.05530727780283537,0.9424964930326116,0.09246610771885083,0.07090092639591539,2.4664050720294184
1763355448233958144,1.9309582710266113,-0.27311885356903076,-0.09042693674564362,-0.019698938354849815,0.07001392543315887,-0.09104028344154358,-0.99338299036026,0.0068445950746536255,-0.01807531714439392,0.00650554895401001,0.3291775736882631,-0.018070145823731155,0.054607570078343756,0.9425145576169118,0.09116651942589389,0.07036393997292677,2.466360465182056
1763355448244004352,1.9410042762756348,-0.2696428894996643,-0.09721160680055618,-0.018780414015054703,0.06935207545757294,-0.08962266147136688,-0.9935582876205444,0.003996923565864563,-0.017036274075508118,0.010388731956481934,0.3292434879820862,-0.017987578588312913,0.05382661461175257,0.9425379228947411,0.08974307877244385,0.06968868312149568,2.466331664276957
1763355448254050304,1.9510502815246582,-0.2816506028175354,-0.09383761137723923,-0.01801227033138275,0.06862276792526245,-0.08813048899173737,-0.9937424063682556,0.003291904926300049,-0.023304447531700134,0.009382665157318115,0.32930321416265734,-0.017885878940013568,0.05299906897307849,0.9425660076325961,0.08824497211095682,0.06894543768341642,2.466322591008579
1763355448264096256,1.9610962867736816,-0.2732989192008972,-0.07868155837059021,-0.01069496851414442,0.06801150739192963,-0.08643145114183426,-0.9939336180686951,0.00011898577213287354,-0.01922040432691574,0.012869775295257568,0.32934547813271964,-0.017875202900119312,0.05209287671475443,0.9426018872101536,0.08653942955362567,0.06832011197437216,2.466352323720312
1763355448274142208,1.971142292022705,-0.2405480146408081,-0.05808617174625397,-0.0003085513599216938,0.06755674630403519,-0.08491392433643341,-0.9940954446792603,-0.0021880939602851868,-0.01541261374950409,0.009781479835510254,0.32933838076195077,-0.01791126476007937,0.051297895410985096,0.9426474004682261,0.08501629769920457,0.06785368142791949,2.4664679642216103
1763355448284188160,1.9811882972717285,-0.23838739097118378,-0.029534421861171722,0.00437941076233983,0.06730424612760544,-0.08358672261238098,-0.994225025177002,-0.005765549838542938,0.0005789026618003845,0.003792285919189453,0.329303794296733,-0.0180129457872376,0.050626294965580944,0.9426937311132384,0.08368435940242595,0.06759205814079747,2.466620073243602
1763355448294234368,1.991234302520752,-0.2191891223192215,-0.003471196163445711,0.013078982010483742,0.06732061505317688,-0.0824156105518341,-0.9943217039108276,-0.011656545102596283,0.016482383012771606,0.007978320121765137,0.32922241427336263,-0.018218371330177025,0.05007245669586803,0.9427478787524515,0.08250919766173347,0.06760189384758132,2.4668492138564475
1763355448304281344,2.001281261444092,-0.20586426556110382,0.020517759025096893,0.015699001029133797,0.06754423677921295,-0.08101926743984222,-0.9944212436676025,-0.012551568448543549,0.01935850828886032,0.0007689595222473145,0.3291175933329111,-0.01856005560063577,0.04944584352809083,0.9428107819221687,0.08110816670468207,0.06781899280630299,2.4671274584635747
1763355448314327296,2.0113272666931152,-0.17498797178268433,0.03920023515820503,0.021129272878170013,0.06798021495342255,-0.07958298176527023,-0.9945075511932373,-0.012422963976860046,0.023445896804332733,0.005005598068237305,0.3289913904594833,-0.019009663472074653,0.048835076962285215,0.9428777584143108,0.07966723071618519,0.06824949214204805,2.4674421476153943
1763355448324373248,2.0213732719421387,-0.11267612874507904,0.05699015036225319,0.01924481987953186,0.06852259486913681,-0.07853616029024124,-0.9945535063743591,-0.00973048061132431,0.02891457825899124,0.0011605620384216309,0.32886274026902373,-0.019445317871802873,0.0484263764783273,0.9429348677179717,0.07861711589095867,0.068789140254452,2.4677377940728196
1763355448334419200,2.031419277191162,-0.06275743991136551,0.06590121984481812,0.020298456773161888,0.06914957612752914,-0.07801554352045059,-0.9945511221885681,-0.005077920854091644,0.05039713531732559,-0.0011916756629943848,0.32874292117100923,-0.01983370153917097,0.04828114853166399,0.9429759215897268,0.07809489993485698,0.06941671603580211,2.4679847990587276
1763355448344465152,2.0414652824401855,-0.007481933105736971,0.0693015456199646,0.011021068319678307,0.06980930268764496,-0.07798010855913162,-0.9945077896118164,-0.0040744394063949585,0.03827673941850662,0.0036325454711914062,0.3286391799867894,-0.020156800452318623,0.04837151928281999,0.9430005685186515,0.07805936018717839,0.07007987453518111,2.46817250747117
1763355448354511360,2.051511287689209,0.04324183240532875,0.05802825093269348,0.01464882679283619,0.0703803077340126,-0.07842912524938583,-0.994432270526886,0.0016869530081748962,0.026900194585323334,-0.007505595684051514,0.32855818936046705,-0.020357031458227818,0.04867720290926259,0.9430088282934067,0.07850975333994449,0.07065654660811846,2.4682927159310823
1763355448364557312,2.0615572929382324,0.0677114874124527,0.05680319666862488,0.00902955699712038,0.07083778828382492,-0.07904394716024399,-0.9943510890007019,0.0030300095677375793,0.03314550966024399,0.004177749156951904,0.328492751895091,-0.020475526031591505,0.0490429899847703,0.9430100979645235,0.07912648845677263,0.0711200666425456,2.468377102502593
1763355448374603264,2.071603298187256,0.08465208858251572,0.05540453642606735,0.007942099124193192,0.0711752399802208,-0.07965568453073502,-0.9942781329154968,0.0002664029598236084,0.01889520138502121,0.0041201114654541016,0.3284511299271008,-0.020536566878395963,0.04938795505680094,0.9430052863141304,0.07974016590538706,0.07146293702988613,2.4684171206227523
1763355448384650240,2.0816502571105957,0.11902551352977753,0.060659218579530716,0.010415110737085342,0.07147735357284546,-0.08039301633834839,-0.9941971302032471,-0.0006002709269523621,0.01729792356491089,-0.0012557506561279297,0.32841103577922015,-0.020560167666837836,0.04978664618518769,0.9429977074664937,0.08047986450943052,0.07177105672662275,2.4684489828506098
1763355448394696192,2.091696262359619,0.14462627470493317,0.06269434094429016,0.005421772133558989,0.07181086391210556,-0.081302210688591,-0.9940991401672363,-0.0011626705527305603,0.0314059779047966,-0.0012926459312438965,0.3283782718666285,-0.02056996796956225,0.05027219481172894,0.9429831961528735,0.08139204489023846,0.07211186312289514,2.468454763426481
1763355448404742144,2.1017422676086426,0.16512756049633026,0.0755414292216301,0.006765869911760092,0.07223793119192123,-0.08224491775035858,-0.9939906597137451,-0.003787003457546234,0.04357914626598358,-0.00010418891906738281,0.32835908389391666,-0.020617796194995944,0.05078947817613097,0.9429610628418211,0.08233792322438711,0.0725471146559302,2.4684242901333455
1763355448414788352,2.111788272857666,0.19306617975234985,0.07618199288845062,0.009440304711461067,0.07276003807783127,-0.08256478607654572,-0.9939260482788086,-0.0034698843955993652,0.03305002301931381,-0.004654824733734131,0.32834528263053864,-0.020812824547240545,0.051027352272264154,0.9429488735910421,0.08265887869069945,0.07307433246219935,2.4684090269240606
1763355448424834304,2.1218342781066895,0.21536508202552795,0.08839310705661774,0.008274106308817863,0.07338845729827881,-0.08345968276262283,-0.9938051104545593,-0.0003141164779663086,0.019998379051685333,-0.0009153485298156738,0.32832940629873564,-0.020963604193840447,0.05155547859846343,0.9429222467925465,0.08355687494302082,0.07371212833709626,2.4683618378440104
1763355448434880256,2.131880283355713,0.23081259429454803,0.09412307292222977,0.01108001358807087,0.0742320567369461,-0.08480695635080338,-0.9936283826828003,-0.004651978611946106,0.017378367483615875,0.006186366081237793,0.3283089493155207,-0.02114196512183232,0.0523337503474602,0.9428824641997675,0.08490894708435251,0.0745695383929639,2.4682878588297914
1763355448444926208,2.1419262886047363,0.23703905940055847,0.09625972807407379,0.022605642676353455,0.07517718523740768,-0.08610258996486664,-0.993445873260498,-0.004818908870220184,-9.430944919586182e-05,0.005073070526123047,0.32824392015305315,-0.021379395286952062,0.0531034532627021,0.9428567958920839,0.08620933621902417,0.07552920653975408,2.468304027529539
1763355448454972160,2.1519722938537598,0.21980880200862885,0.04515965282917023,-0.012289047241210938,0.07585719227790833,-0.08771776407957077,-0.9932528734207153,-0.0002956688404083252,-0.01669812947511673,-0.001833796501159668,0.3282039784444339,-0.02143747999226513,0.05398143785308216,0.9428194319573282,0.08783064534166629,0.07622451538112507,2.468262907603939
1763355448465018368,2.162018299102783,0.2533302903175354,0.10984810441732407,0.04011370614171028,0.0766928642988205,-0.08811283856630325,-0.9931537508964539,-0.004259392619132996,-0.0017461702227592468,0.009862124919891357,0.32827427703472994,-0.02176372745464787,0.05430906941489419,0.9427686875728055,0.08822725272295467,0.07706859392836615,2.4680440341877157
1763355448475065344,2.172065258026123,0.1607102006673813,0.10070613771677017,0.015174800530076027,0.07741515338420868,-0.0894077867269516,-0.9929819703102112,-0.003425285220146179,0.004034869372844696,0.02456766366958618,0.32814988577320664,-0.02189947289342036,0.055040357917606864,0.942766484199251,0.08952733822507024,0.07780491503580989,2.4681947430378743
1763355448485111296,2.1821112632751465,0.14965249598026276,0.0979553610086441,0.025863930583000183,0.07829175144433975,-0.09038323909044266,-0.992824912071228,-0.0003956332802772522,-0.07143621891736984,-0.018375039100646973,0.32805756506146116,-0.022159090815787222,0.055646444605283805,0.9427570075876028,0.09050674975928413,0.07869470997205118,2.468284688725694
1763355448495157248,2.19215726852417,0.11993468552827835,0.0928126648068428,0.018536508083343506,0.0790964812040329,-0.09128965437412262,-0.992678165435791,-0.001398727297782898,-0.01207338273525238,0.004717350006103516,0.32795845895319575,-0.022396587861185393,0.05620772847324946,0.9427525419033879,0.09141693310935245,0.07951189634302039,2.468395905752587
1763355448505203200,2.2022032737731934,0.09359654784202576,0.10125888139009476,0.019540786743164062,0.07996653765439987,-0.09202780574560165,-0.9925402998924255,0.004261977970600128,-0.002103663980960846,0.010087907314300537,0.3278656168605881,-0.022692420609755907,0.05670014498826514,0.9427483457178885,0.09215820343285298,0.08039390113474812,2.468498649957417
1763355448515249152,2.212249279022217,0.053859591484069824,0.11035856604576111,0.021063227206468582,0.08089221268892288,-0.09249783307313919,-0.992421567440033,-0.006002075970172882,-0.02194308489561081,0.01869720220565796,0.3277510855818851,-0.023060081406391996,0.05707399303783176,0.9427565774801039,0.09263024125822727,0.08133013179360478,2.4686582083984785
1763355448525295360,2.2222952842712402,0.020884860306978226,0.09990645945072174,0.014256719499826431,0.08180826157331467,-0.09281913191080093,-0.992316484451294,-0.006704516708850861,-0.03457649052143097,0.01734095811843872,0.3276475960572109,-0.02344706760409634,0.05737586563868079,0.9427647041528623,0.0929529295498608,0.08225568866111678,2.468803184175504
1763355448535341312,2.2323412895202637,-0.006549027748405933,0.07885430008172989,0.008420225232839584,0.0826043114066124,-0.0930037647485733,-0.9922332763671875,0.0036231055855751038,-0.024321064352989197,0.0059051513671875,0.32756134313996577,-0.023798741354588437,0.057593349984400063,0.9427725656618787,0.0931383656518357,0.0830593663186135,2.468926408557987
1763355448545387264,2.242387294769287,-0.011846054345369339,0.06892390549182892,0.013257324695587158,0.08319650590419769,-0.09296517819166183,-0.9921873807907104,0.01000417023897171,-0.019873566925525665,0.005386233329772949,0.32747917198698406,-0.02409040092076858,0.0576711210921707,0.9427889067342654,0.09309960976735841,0.08365590960108248,2.469066423947302
1763355448555434240,2.252434253692627,-0.01369691826403141,0.07385951280593872,0.0064908540807664394,0.08381982147693634,-0.09278813004493713,-0.9921514987945557,0.0026517286896705627,-0.01828058809041977,0.02250128984451294,0.32740718861523455,-0.024418926103736763,0.05768852477614219,0.9428044496740988,0.0929217956898589,0.08428274521210731,2.469191240396965
1763355448565480192,2.2624802589416504,-0.019556405022740364,0.05706082284450531,0.003587209153920412,0.08431962877511978,-0.09370455145835876,-0.9920229911804199,0.0004582032561302185,-0.011321701109409332,0.009845256805419922,0.3273219972995614,-0.024510252578545277,0.058204308733909575,0.9427999525890443,0.09384222351806121,0.0847938477355999,2.46928661382575
1763355448575526144,2.272526264190674,-0.03787326067686081,0.03859702870249748,0.004507420584559441,0.08463363349437714,-0.09366296976804733,-0.9920002222061157,0.008856967091560364,-0.008113153278827667,0.007777810096740723,0.3272702885919135,-0.02466891743802206,0.058235256688436654,0.9428118472737459,0.09380046289347682,0.08511004434270407,2.4693792248375424
1763355448585572352,2.2825722694396973,-0.060420647263526917,0.022888904437422752,0.006352458149194717,0.0849415734410286,-0.09321536868810654,-0.9920160174369812,0.011204048991203308,-0.013046830892562866,0.008342981338500977,0.32722720129196725,-0.02489083871451075,0.05807259181859352,0.9428310393244167,0.09335088880778476,0.08541685921674831,2.469478280612615
1763355448595618304,2.2926182746887207,-0.07544736564159393,0.01981065794825554,0.002763582393527031,0.0849209576845169,-0.09319174289703369,-0.9920200109481812,0.007043756544589996,-0.02240883558988571,0.009613454341888428,0.32716386351121896,-0.02488885618078973,0.05805628148868759,0.9428541274804818,0.09332716086395658,0.08539588529617614,2.469615422066877
1763355448605664256,2.302664279937744,-0.07382497191429138,0.012402009218931198,-0.0011765644885599613,0.0848417729139328,-0.09342509508132935,-0.9920048713684082,0.0027894526720046997,-0.011387526988983154,0.003952503204345703,0.3271164511846333,-0.024815994303456358,0.0581527380161886,0.942866493301777,0.09356153919544907,0.08531794462753187,2.4697068573538363
1763355448615710208,2.3127102851867676,-0.0738786980509758,0.006102501414716244,7.006153464317322e-05,0.08497905731201172,-0.09337790310382843,-0.9919975399971008,0.006024353206157684,0.002664409577846527,0.0027855634689331055,0.32708933475651514,-0.0248904041644931,0.05815234817666558,0.942874008358587,0.09351413938989143,0.08545595332765353,2.4697587455346204
1763355448625756160,2.322756290435791,-0.07760152965784073,0.0024206810630857944,-0.000972832553088665,0.08523090183734894,-0.09317082166671753,-0.9919953942298889,0.003468438982963562,0.005188651382923126,0.007376253604888916,0.3270686728897474,-0.025044889600959293,0.05809517170210613,0.9428806138150704,0.09330615360154992,0.08570816075694138,2.469799323876158
1763355448635803136,2.332803249359131,-0.08011569082736969,-0.006007291376590729,-0.0031204945407807827,0.08532405644655228,-0.09293325990438461,-0.992009699344635,0.0027496814727783203,0.00019034743309020996,0.00638347864151001,0.3270486906411827,-0.025129197171195723,0.05799724576333805,0.942891373593187,0.0930675570713475,0.08580014463758315,2.4698502370156534
1763355448645849344,2.3428492546081543,-0.06747792661190033,-0.008560996502637863,-0.0056228009052574635,0.08526303619146347,-0.09253964573144913,-0.9920517206192017,0.0047485604882240295,-0.003132961690425873,0.00238192081451416,0.32705421412769214,-0.025164548112169807,0.05780035890805046,0.9429006134703398,0.09267223485430315,0.0857354733530647,2.4698658681391534
1763355448655895296,2.3528952598571777,-0.06179290637373924,-0.011786851100623608,-0.009243368171155453,0.08539137244224548,-0.09217613935470581,-0.9920745491981506,0.005657821893692017,0.0050637125968933105,0.0033050179481506348,0.32708286844399154,-0.02528318982066286,0.057649768800379066,0.94289656539725,0.0923071712879083,0.08586191940719433,2.469818615916463
1763355448665941248,2.362941265106201,-0.04681529104709625,-0.015199691988527775,-0.008118715137243271,0.08558036386966705,-0.09202557057142258,-0.9920722246170044,0.0034699290990829468,0.006713680922985077,0.008139729499816895,0.3271149105558293,-0.025395414243415997,0.05761042706631674,0.9428849115299464,0.09215595461104854,0.08605122021011492,2.469748148980131
1763355448675987200,2.3729872703552246,-0.046366117894649506,-0.029292508959770203,-0.014188414439558983,0.08556972444057465,-0.09217605739831924,-0.9920591711997986,0.003572121262550354,-0.0017417818307876587,0.003869473934173584,0.3271535131950021,-0.025363321294280143,0.05768116441824157,0.9428681026671272,0.09230709022093168,0.0860417000837067,2.4696579968213483
1763355448686033152,2.383033275604248,-0.040885329246520996,-0.04263893887400627,-0.012849642895162106,0.08530347794294357,-0.09207406640052795,-0.9920915961265564,0.007485218346118927,0.003389976918697357,-0.0011945366859436035,0.3272153141493739,-0.02525023650346148,0.05759028315307125,0.942855161333935,0.09220465713205427,0.08577250967400195,2.469549249408448
1763355448696079360,2.3930792808532715,-0.03158164396882057,-0.04473904147744179,-0.012618126347661018,0.0850454568862915,-0.09167380630970001,-0.9921507835388184,0.006125807762145996,0.012114480137825012,-0.0005555152893066406,0.32728942312430587,-0.025189273386011405,0.05735945994046314,0.942845127186431,0.09180270293026929,0.08550925642464412,2.469431740043538
1763355448706125312,2.403125286102295,-0.029792532324790955,-0.04380480572581291,-0.011439677327871323,0.08475211262702942,-0.09130552411079407,-0.9922098517417908,0.002787560224533081,0.011669903993606567,0.0063394904136657715,0.3273605711198858,-0.025106554800678953,0.057137883384182644,0.94283608922738,0.09143286754961365,0.0852106927169404,2.469320652232514
1763355448716172288,2.4131722450256348,-0.016284912824630737,-0.0470331534743309,-0.016024397686123848,0.08443570882081985,-0.0911126434803009,-0.9922545552253723,0.0006320402026176453,0.012835055589675903,0.0011199116706848145,0.32743059018149295,-0.024984216829816802,0.05699572567653791,0.9428236887596868,0.09123918235536942,0.08489030221507703,2.4692029516266816
1763355448726218240,2.423218250274658,0.0006868811324238777,-0.04462325945496559,-0.012891188263893127,0.08415518701076508,-0.09116403758525848,-0.9922736883163452,0.004330530762672424,0.017921850085258484,-0.003697991371154785,0.327501196649498,-0.024838724181437948,0.05697548493593896,0.9428042785653091,0.09129078835548231,0.08460799510590564,2.469067311876251
1763355448736264192,2.4332642555236816,0.014499399811029434,-0.040993403643369675,-0.010081642307341099,0.08392755687236786,-0.09114478528499603,-0.9922947287559509,0.0011554509401321411,0.018436655402183533,0.004028737545013428,0.3275704575141516,-0.024729957346388963,0.05693043222280975,0.9427856784573373,0.09127145516199843,0.08437844015722656,2.468935156628591
1763355448746310144,2.443310260772705,0.016192637383937836,-0.036175746470689774,-0.011958105489611626,0.08370490372180939,-0.09115412086248398,-0.9923126697540283,-0.002772286534309387,0.006132148206233978,0.00708317756652832,0.32763820136669336,-0.024618951236139854,0.056899711945636575,0.9427669715750313,0.09128082915612812,0.08415413775213984,2.468804578125701
1763355448756356352,2.4533562660217285,0.010294600389897823,-0.03240824118256569,-0.008853036910295486,0.08351743221282959,-0.09135688096284866,-0.9923098087310791,-0.0009521320462226868,-0.006039969623088837,0.0066072940826416016,0.3277015068557963,-0.024493072313789752,0.05696652401870105,0.942744179598612,0.09148444279981513,0.08396678484831599,2.468669721211478
1763355448766402304,2.463402271270752,0.0038076722994446754,-0.03739527612924576,-0.00851454958319664,0.0834089070558548,-0.09133107960224152,-0.9923213124275208,0.0018266886472702026,-0.008995458483695984,0.005291283130645752,0.32775773376417033,-0.02444255435406935,0.05693773042489545,0.942727686673257,0.09145852729656169,0.0838572186579518,2.4685585631300393
1763355448776448256,2.4734482765197754,-0.004252850543707609,-0.04147370532155037,-0.0058488138020038605,0.08320782333612442,-0.09103897958993912,-0.9923650622367859,0.00253131240606308,-0.010142043232917786,0.007486522197723389,0.32781141651451695,-0.024392174515023044,0.056767105352483124,0.9427206899527492,0.0911652108886891,0.08365232946133168,2.4684741355405433
1763355448786494208,2.483494281768799,-0.01396087184548378,-0.034702617675065994,-0.003976345062255859,0.08295603841543198,-0.09068253636360168,-0.9924187660217285,0.0006010904908180237,-0.008987873792648315,0.008272647857666016,0.3278563297114924,-0.02432892801003399,0.056557301929148186,0.9427193241536186,0.09080728428646948,0.0833958795735019,2.468414924567721
1763355448796541184,2.4935412406921387,-0.020715447142720222,-0.029941154643893242,-0.007997630164027214,0.0827096477150917,-0.09020549803972244,-0.9924827814102173,-0.0026315227150917053,-0.0035750195384025574,0.007344841957092285,0.32790218180502667,-0.024288032142001172,0.05629118747214647,0.9427203393324425,0.09032828154207034,0.08314398483932485,2.468360220565284
1763355448806587136,2.503587245941162,-0.02280469611287117,-0.03153692185878754,-0.0036771835293620825,0.08254630863666534,-0.08956395089626312,-0.9925544857978821,-0.0021172314882278442,-0.0037282779812812805,0.00708085298538208,0.3279470765201489,-0.024313576766058734,0.055960765005471716,0.9427237694953191,0.08968413069232696,0.0829745757036365,2.46831201714227
1763355448816633344,2.5136332511901855,-0.031762972474098206,-0.03256896138191223,-0.008326264098286629,0.0823148712515831,-0.08887186646461487,-0.9926359057426453,0.0005403533577919006,-0.004008390009403229,0.008276164531707764,0.3279959066830942,-0.02431500434779907,0.05559518824704031,0.9427282306551892,0.08898926894513018,0.08273623872400698,2.46826190499878
1763355448826679296,2.523679256439209,-0.034826137125492096,-0.025181084871292114,-0.005464164540171623,0.0820070281624794,-0.08846674114465714,-0.9926975965499878,0.0006498321890830994,-0.005664728581905365,0.009421229362487793,0.32802289422509384,-0.02423438486257652,0.0553525510853745,0.9427352723396948,0.08858254231046049,0.08242312414366097,2.4682463326152084
1763355448836725248,2.5337252616882324,-0.034603897482156754,-0.02404484897851944,-0.004126281477510929,0.08179421722888947,-0.0883600264787674,-0.9927246570587158,-0.0021128207445144653,-0.006412304937839508,0.00450444221496582,0.3280378387519933,-0.02415036323614611,0.05526698168585777,0.9427373326987418,0.08847541213457245,0.08220797067694467,2.4682334753389785
1763355448846771200,2.543771266937256,-0.03554585948586464,-0.029790885746479034,-0.003899912815541029,0.0816415548324585,-0.08831634372472763,-0.9927411079406738,-3.7550926208496094e-05,0.0014480575919151306,0.005405902862548828,0.32804946702393123,-0.024084630024257005,0.055221217226462005,0.942737649756758,0.08843155379634095,0.08205386922714489,2.468220316220805
1763355448856817152,2.5538172721862793,-0.025540262460708618,-0.034778282046318054,6.988365203142166e-05,0.08145131915807724,-0.0883350670337677,-0.9927550554275513,0.00135812908411026,0.0052204430103302,0.0033446550369262695,0.32805223617167173,-0.023991369884720098,0.05519861195340981,0.9427402916396075,0.08845035224671052,0.08186237807237745,2.4682244159822027
1763355448866863360,2.5638632774353027,-0.02994886040687561,-0.0264564398676157,4.902482032775879e-06,0.0812036544084549,-0.08835038542747498,-0.9927740097045898,0.0005224272608757019,0.0035115182399749756,0.0028295516967773438,0.3280580758552272,-0.023871317310340364,0.055164930765555543,0.9427433328980147,0.08846573092018924,0.08161301901795041,2.468225857375264
1763355448876910336,2.5739102363586426,-0.02045542187988758,-0.017249425873160362,-0.00063683046028018,0.08096958696842194,-0.08826179057359695,-0.9928009510040283,-0.001547589898109436,0.003987498581409454,0.00416874885559082,0.3280508829787963,-0.023775559192754935,0.0550838813076488,0.9427529135709855,0.08837679175529668,0.0813766092943042,2.468259789435309
1763355448886956288,2.583956241607666,-0.012596966698765755,-0.009887117892503738,-0.0008197897113859653,0.08084344863891602,-0.08824815601110458,-0.99281245470047,-0.004610538482666016,0.008597269654273987,0.005034744739532471,0.32804663887080565,-0.023718366196640348,0.05505637525587877,0.9427574252161768,0.08836309804242272,0.08124945870800716,2.4682769656487684
1763355448897002240,2.5940022468566895,0.008504390716552734,-0.005890045780688524,0.003991654608398676,0.08080395311117172,-0.08837578445672989,-0.9928043484687805,-0.0032282620668411255,0.013394102454185486,0.0038669705390930176,0.32803858020937815,-0.02367914894599687,0.05511017595040201,0.9427581612106009,0.08849123363461184,0.08121059750832739,2.4682893116010884
1763355448907048192,2.604048252105713,0.02304551564157009,0.0020576256792992353,0.0016118544153869152,0.080849789083004,-0.08869654685258865,-0.9927719831466675,-0.0015803799033164978,0.015042372047901154,0.0029648542404174805,0.328020110400364,-0.023649152918425186,0.055269518178516774,0.9427560119318973,0.08881325632314169,0.08125910032021053,2.468307579215444
1763355448917094144,2.6140942573547363,0.0386415533721447,0.01007610373198986,0.005515160039067268,0.08088582009077072,-0.08917255699634552,-0.9927264451980591,-0.0052327439188957214,0.01297016441822052,0.004933476448059082,0.3279939611798148,-0.02358943517740308,0.05550071803732753,0.9427530234365303,0.08929115934898384,0.08129887372603094,2.468333849571426
1763355448927140352,2.6241402626037598,0.04363711178302765,0.0130503224208951,0.0037462888285517693,0.08102262020111084,-0.08953017741441727,-0.9926830530166626,-0.00266873836517334,0.008780673146247864,0.002723395824432373,0.3279798778986789,-0.023596166139803473,0.055692766561784526,0.9427464376455468,0.08965021981792522,0.08143929911243833,2.4683352331744124
1763355448937186304,2.634186267852783,0.04428725689649582,0.01616881787776947,0.007257134187966585,0.08121810108423233,-0.0898248702287674,-0.992640495300293,-0.0020555034279823303,0.004986003041267395,0.005900382995605469,0.3279586607701037,-0.02364144997011354,0.055864516839023964,0.942742491607707,0.08994610385324742,0.0816384078788642,2.468351695669996
1763355448947232256,2.6442322731018066,0.044796720147132874,0.017755528911948204,0.0027156458236277103,0.08140082657337189,-0.09014780819416046,-0.9925962090492249,-0.0017194300889968872,0.0036762505769729614,0.0046811699867248535,0.32793906300615566,-0.023675961215165013,0.056047601704512715,0.9427375194208762,0.09027035722535058,0.08182489336641506,2.4683637360133734
1763355448957279232,2.6542792320251465,0.04211804270744324,0.017610186710953712,0.007412929553538561,0.08150995522737503,-0.0904468297958374,-0.992560088634491,-0.0009282901883125305,0.004982352256774902,0.002798736095428467,0.3279108546572734,-0.023680097697533598,0.0562069117671131,0.9427377225878952,0.09057060469144551,0.08193706921512925,2.4683998220619827
1763355448967325184,2.66432523727417,0.035190094262361526,0.02065844088792801,0.010986359789967537,0.08156400918960571,-0.09059442579746246,-0.9925421476364136,-0.0006771758198738098,0.0018798336386680603,0.00596994161605835,0.3278772918248817,-0.023683404928912404,0.0562850804851952,0.9427447088554242,0.09071880557226057,0.08199263458270521,2.468459396774791
1763355448977371136,2.6743712425231934,0.03195292502641678,0.020150410011410713,0.008786054328083992,0.0816870927810669,-0.09057378768920898,-0.9925339221954346,-0.0052253082394599915,0.0007605627179145813,0.006907761096954346,0.3278418189014438,-0.023747163813261443,0.05629481050103714,0.9427548464358547,0.09069808218468947,0.08211648973734036,2.468528408832177
1763355448987417344,2.684417247772217,0.02876005880534649,0.01970353163778782,0.005612100008875132,0.08183536678552628,-0.09048173576593399,-0.992530107498169,-0.0025354325771331787,0.0010652318596839905,0.0005714893341064453,0.3278169280490087,-0.023833952673541943,0.05627508414906589,0.9427625474664485,0.09060565565870181,0.08226518581140792,2.4685777068228627
1763355448997463296,2.6944632530212402,0.028425268828868866,0.020299313589930534,0.007469920441508293,0.08187632262706757,-0.0904567763209343,-0.992529034614563,0.000872097909450531,-0.0009433627128601074,0.0020047426223754883,0.3277817324442659,-0.023859537460579026,0.05626913878144097,0.9427745152646488,0.09058059483515103,0.08230625928453812,2.4686513895956814
1763355449007509248,2.7045092582702637,0.011129101738333702,0.019157616421580315,0.006560184992849827,0.08199214935302734,-0.09043415635824203,-0.9925215244293213,-0.0006933212280273438,-0.002903856337070465,0.007719278335571289,0.32774072556110717,-0.023920521433024974,0.056276572161139335,0.9427867423224663,0.09055787686696605,0.08242279216137138,2.468732646218479
1763355449017555200,2.714555263519287,0.008194930851459503,0.02236529439687729,0.011603944934904575,0.08213870227336884,-0.09041966497898102,-0.9925107359886169,-0.0016333311796188354,-0.011783704161643982,0.008150994777679443,0.32769179775469554,-0.02399518097350599,0.05629274991142621,0.9428009190427482,0.09054332781018345,0.08257033999236137,2.468828521328583
1763355449027602176,2.724602222442627,0.004887018818408251,0.0307364072650671,0.008547435514628887,0.08232495188713074,-0.09037798643112183,-0.992499053478241,-0.0020179525017738342,-0.013274960219860077,0.009207487106323242,0.32764484217052087,-0.02409298163176472,0.05630265141477425,0.9428141098245985,0.0905014777590845,0.0827576823609334,2.468919254777775
1763355449037648128,2.7346482276916504,0.015088623389601707,0.03602508082985878,0.013387199491262436,0.08261024951934814,-0.09039662778377533,-0.9924736618995667,-0.0033103302121162415,-0.0043757036328315735,0.010692715644836426,0.3275854479607241,-0.02422849468899666,0.05635727067491592,0.9428280370621617,0.09052019354515027,0.08304528229179872,2.4690270382003012
1763355449047694080,2.744694232940674,0.01359778456389904,0.04071730375289917,0.006938087288290262,0.08293011039495468,-0.09052211791276932,-0.9924355745315552,-0.0011887773871421814,0.0024026110768318176,0.008045315742492676,0.32753164992019623,-0.024362486704821523,0.0564684748666818,0.942836583320756,0.09064620184788014,0.08336852994941832,2.4691145104684056
1763355449057740288,2.7547402381896973,0.003674181643873453,0.040961917489767075,0.008803898468613625,0.08316076546907425,-0.09064006805419922,-0.9924054741859436,-0.0013126209378242493,0.0006437376141548157,0.0073743462562561035,0.3274706236188292,-0.024455941497772773,0.056561114188884806,0.9428498490831974,0.0907646429925979,0.0836018481999891,2.469223230573303
1763355449067786240,2.7647862434387207,-0.004108906723558903,0.03696637600660324,0.011018849909305573,0.0834287703037262,-0.09060478210449219,-0.9923862218856812,-0.0019926130771636963,-0.0063648223876953125,0.004516959190368652,0.32741192796047847,-0.024592112019724843,0.056587250277253066,0.9428650527795218,0.09072920587390024,0.08387163039191259,2.4693334636709476
1763355449077832192,2.774832248687744,-0.004797200672328472,0.03025081381201744,0.00743458978831768,0.08373206853866577,-0.09058953821659088,-0.9923620820045471,0.0002675652503967285,-0.007112488150596619,0.002417623996734619,0.32736113629696817,-0.024741230797522676,0.056628942139286265,0.9428762668274734,0.09071389936997393,0.08417714477447549,2.4694237121987506
1763355449087877632,2.7848777770996094,0.0019635003991425037,0.0277093593031168,0.011333457194268703,0.08396857976913452,-0.09066973626613617,-0.99233478307724,0.0035863593220710754,0.0004903003573417664,0.0022072196006774902,0.3273087093256388,-0.0248431677962549,0.05670481611540294,0.9428873610121687,0.09079443300348855,0.08441609734767888,2.469516134273913
1763355449097923840,2.794923782348633,0.0051197451539337635,0.028902588412165642,0.006416551768779755,0.0841706395149231,-0.09100484848022461,-0.9922869801521301,0.0010191798210144043,0.00808858871459961,0.006111443042755127,0.3272558092302857,-0.024886995057033276,0.05689600036427788,0.9428929458419886,0.0911309330747523,0.08462232282545486,2.469596161696952
1763355449107970816,2.8049707412719727,0.0025316854007542133,0.022346418350934982,0.008905009366571903,0.08433219790458679,-0.09135752171278,-0.992240846157074,0.0008423551917076111,0.003222748637199402,0.004859864711761475,0.32720705822224316,-0.0249085377197827,0.057088923096749115,0.9428976069001592,0.09148508020670357,0.08478789668007121,2.4696688645097664
1763355449118016768,2.815016746520996,0.00412868382409215,0.01364490669220686,0.005181644111871719,0.08440510183572769,-0.09149961173534393,-0.9922215342521667,0.004309490323066711,-0.00412721186876297,0.0042150020599365234,0.32717130179472265,-0.024921896768573884,0.0571675218105431,0.9429048932052181,0.09162777189552344,0.0848624849632924,2.469731844983746
1763355449128062720,2.8250627517700195,0.021488498896360397,0.011637682095170021,0.004498276859521866,0.08448564261198044,-0.09156569838523865,-0.9922086000442505,0.0021537616848945618,0.0048805177211761475,0.0004330873489379883,0.32714507079992966,-0.024950771781196087,0.05721154607137818,0.9429105890136371,0.09169413842738164,0.08494417857906174,2.469778701915297
1763355449138108672,2.835108757019043,0.037283506244421005,0.009471666999161243,0.004372841212898493,0.0845138430595398,-0.09183119237422943,-0.992181658744812,0.0005539059638977051,0.012577041983604431,-0.0023862123489379883,0.3271142478742723,-0.0249224304865878,0.05734146376987552,0.9429141605430925,0.0919607526561772,0.08497469171952275,2.4698266653598138
1763355449148154624,2.8451547622680664,0.04842643812298775,0.009766212664544582,0.005669001955538988,0.08454270660877228,-0.09238908439874649,-0.9921274185180664,0.0006928890943527222,0.01638505607843399,-0.0008535385131835938,0.3270961579405194,-0.024845656551762182,0.05761068165029799,0.942906059026351,0.09252102632919537,0.08500819605914171,2.469830178391394
1763355449158200832,2.85520076751709,0.053414374589920044,0.008820157498121262,0.002847649622708559,0.08461469411849976,-0.09301596879959106,-0.9920626878738403,0.00039201974868774414,0.012953110039234161,0.001278996467590332,0.3270819359079032,-0.024777748847948523,0.05791992213924672,0.9428938832386726,0.09315062598895313,0.08508575766906842,2.4698187103170097
1763355449168246784,2.8652467727661133,0.06642977893352509,0.009823370724916458,0.006708433385938406,0.08478165417909622,-0.0935392752289772,-0.9919992089271545,0.0009879916906356812,0.0052824467420578,0.0013681650161743164,0.3270667241450726,-0.024771865855481526,0.058195696741298375,0.9428822582656524,0.09367621892029329,0.08525826432251302,2.4698092629107697
1763355449178293760,2.875293731689453,0.0927409678697586,0.018323149532079697,0.009732807986438274,0.08496417850255966,-0.09409136325120926,-0.9919313788414001,-0.0005067884922027588,0.005956605076789856,0.005740642547607422,0.32704661739979546,-0.02476893425836434,0.05848760212373283,0.9428712363363355,0.09423075385985835,0.08544673237540891,2.4698074715951517
1763355449188339712,2.8853397369384766,0.09941671788692474,0.016918331384658813,0.01151659432798624,0.0851588174700737,-0.09492990374565125,-0.991834819316864,-9.106844663619995e-05,0.012654513120651245,0.007627665996551514,0.32700961512876,-0.024725806386784673,0.058917147790516045,0.9428584212329203,0.09507306611972602,0.08564982386710678,2.469823302953642
1763355449198385664,2.8953857421875,0.08025681227445602,0.01953282207250595,0.009263914078474045,0.08542709052562714,-0.0958377942442894,-0.99172443151474,0.0009071379899978638,0.0034763365983963013,0.00712054967880249,0.3269707824943807,-0.024706302925693945,0.059391813853345264,0.9428426449916458,0.09598511084964222,0.08592783367303805,2.469833953974864
1763355449208431616,2.9054317474365234,0.0639880895614624,0.0259007066488266,0.009082021191716194,0.0856756940484047,-0.09633859246969223,-0.9916544556617737,-0.0005163922905921936,-0.01057974249124527,0.015122473239898682,0.32694294497142784,-0.024743607067962185,0.05967016191790942,0.9428337720839057,0.09648823974831745,0.0861827130208315,2.469846862788774
1763355449218477824,2.915477752685547,0.0562908910214901,0.034808315336704254,0.009219174273312092,0.08594701439142227,-0.09652410447597504,-0.9916129112243652,-0.005136474967002869,-0.013842709362506866,0.01346355676651001,0.3269057109758159,-0.024844000316050188,0.05980225245374821,0.942835679063761,0.09667461962038078,0.08645788652270091,2.469897235810863
1763355449228523776,2.9255237579345703,0.04963618144392967,0.026819897815585136,0.009704935364425182,0.08622096478939056,-0.09658574312925339,-0.9915831685066223,-0.002495989203453064,-0.008196361362934113,0.0059874653816223145,0.3268710404741891,-0.024965803029678046,0.05987599026271158,0.942839850118421,0.09673654888998284,0.0867346761082658,2.469949576130211
1763355449238569728,2.9355697631835938,0.03891003504395485,0.021461084485054016,0.008396433666348457,0.08644061535596848,-0.09663992375135422,-0.9915587306022644,0.004318654537200928,-0.0062500834465026855,0.00436091423034668,0.3268388101801263,-0.025062973274159798,0.059937255672134156,0.9428445245215998,0.09679098210329456,0.0869566578366736,2.470000505316091
1763355449248616704,2.9456167221069336,0.028419576585292816,0.025503497570753098,0.005372681189328432,0.0866578072309494,-0.09678161889314651,-0.9915259480476379,0.0008513480424880981,-0.002843014895915985,0.00806647539138794,0.3268094426537648,-0.025144447892118775,0.06003976254923085,0.9428460371579768,0.09693334588811306,0.08717690972176327,2.4700402286453516
1763355449258662656,2.955662727355957,0.010273795574903488,0.022664368152618408,0.0043043103069067,0.08685196191072464,-0.09679531306028366,-0.9915076494216919,-0.00225723534822464,-0.005194433033466339,0.0060340166091918945,0.326778011343242,-0.02523614254441071,0.06007757937819248,0.9428521219491449,0.09694710555745065,0.08737284403584587,2.470093679206028
1763355449268708608,2.9657087326049805,-0.0011431770399212837,0.00874269288033247,0.005714453756809235,0.08696726709604263,-0.09653511643409729,-0.9915229082107544,0.001396380364894867,-0.00902518630027771,0.0056372880935668945,0.32675901885523967,-0.02533461585900819,0.05997254504843254,0.9428626289848665,0.09668568239256099,0.08748690545689727,2.470142323191877
1763355449278754816,2.975754737854004,-0.008670534938573837,0.0016628787852823734,0.002383904531598091,0.08698675781488419,-0.09640132635831833,-0.9915342330932617,0.006351254880428314,-0.012058146297931671,0.004809379577636719,0.32674738896201944,-0.025366520896329105,0.05991189375191323,0.9428696880205204,0.09655126915896,0.08750542119471037,2.470174017574497
1763355449288800768,2.9858007431030273,-0.01843554899096489,-0.005333511624485254,-0.0008180136792361736,0.08692796528339386,-0.09653624147176743,-0.9915262460708618,0.00483839213848114,-0.0074981823563575745,0.006952881813049316,0.3267424896005336,-0.025316870922989062,0.059966127972119934,0.9428692691007902,0.09668681678569581,0.08744727719250796,2.470179886920632
1763355449298846720,2.995846748352051,-0.03152242302894592,-0.015403622761368752,-0.003617440350353718,0.08670157194137573,-0.09662801772356033,-0.9915370941162109,0.0025928616523742676,-0.010198764503002167,0.0055904388427734375,0.3267476780037885,-0.02519428837312643,0.05997238277607045,0.9428703763753183,0.09677901998944562,0.08721973388699612,2.47017780829018
1763355449308892672,3.005892753601074,-0.03481622040271759,-0.01346990279853344,-0.001993178389966488,0.08651168644428253,-0.09649310261011124,-0.9915668368339539,0.0027217119932174683,-0.014926575124263763,0.006550967693328857,0.32676313786767575,-0.02512551012092757,0.05987725493609641,0.94287291422963,0.09664347346492291,0.0870270828440002,2.470165476822099
1763355449318938624,3.0159387588500977,-0.0328819639980793,-0.012274408712983131,-0.0004538712091743946,0.08648398518562317,-0.09632520377635956,-0.9915856122970581,0.001757591962814331,-0.012714102864265442,0.008583903312683105,0.3267737629835508,-0.025139250068476626,0.05979318622942608,0.9428741426970326,0.09647478875902986,0.0869977236575991,2.4701548745324833
1763355449328985600,3.0259857177734375,-0.026520738378167152,-0.013306383043527603,-0.0036936067044734955,0.08640900999307632,-0.09611276537179947,-0.9916127324104309,-0.0007309094071388245,0.001309908926486969,0.006184875965118408,0.326781943687339,-0.025138063657395824,0.05968005742196478,0.9428785768723875,0.09626135937765903,0.08692031679881035,2.47015542391528
1763355449339031808,3.036031723022461,-0.02765517681837082,-0.021912455558776855,-0.0008491729386150837,0.08622489124536514,-0.09598691016435623,-0.9916409254074097,0.0009180530905723572,0.007806375622749329,0.0027188658714294434,0.3267929366671549,-0.0250708187878628,0.05959007189949049,0.9428822408041171,0.09613491821768366,0.0867335751135788,2.4701515133141543
1763355449349077760,3.0460777282714844,-0.02623145282268524,-0.023711152374744415,-0.0019205627031624317,0.08606462180614471,-0.09595227241516113,-0.9916582107543945,0.0030619576573371887,0.0030262544751167297,0.0032702088356018066,0.32679418834366675,-0.025000531405326695,0.05954711586252474,0.9428863963970834,0.09610012380947328,0.08657167008239978,2.4701611950633504
1763355449359123712,3.056123733520508,-0.02074800431728363,-0.02746408060193062,-0.002665094332769513,0.085994191467762,-0.09602557122707367,-0.9916572570800781,0.0034833475947380066,0.0020772069692611694,0.005451202392578125,0.3268065604380767,-0.02495437855516435,0.05957060630851455,0.9428818202151376,0.09617376377185952,0.08650125858621373,2.470134928732731
1763355449369169664,3.0661697387695312,-0.017711468040943146,-0.01977473497390747,-0.008115786127746105,0.08593515306711197,-0.09603998810052872,-0.9916609525680542,0.00021597743034362793,0.003541208803653717,0.004386782646179199,0.32683132209786386,-0.02492249521824573,0.05956833227471587,0.9428742235374542,0.09618824247951363,0.08644184368617931,2.470085288519131
1763355449379215616,3.0762157440185547,-0.021997027099132538,-0.01888177916407585,-0.0018986365757882595,0.08583611249923706,-0.09613111615180969,-0.9916607141494751,0.00020819902420043945,0.0028083547949790955,0.004432320594787598,0.32685567371518925,-0.024859115858780163,0.05959586843174633,0.9428656848505543,0.09627979259945985,0.08634273608230045,2.4700343493006276
1763355449389261824,3.086261749267578,-0.030802235007286072,-0.013076086528599262,-0.0018722712993621826,0.08576745539903641,-0.09624912589788437,-0.9916552305221558,-0.00018090754747390747,-0.003985859453678131,0.006013751029968262,0.3268647489397141,-0.024806680424457203,0.059640800264957564,0.9428611059269806,0.096398352938323,0.08627449851273145,2.470012355066811
1763355449399308800,3.096308708190918,-0.038156189024448395,-0.006128531880676746,-0.003078327514231205,0.08575503528118134,-0.0962420254945755,-0.9916569590568542,-0.0021826475858688354,-0.010035440325737,0.008975684642791748,0.3268721809223827,-0.024801490321106037,0.05963556785101314,0.9428589817569081,0.09639122388633765,0.08626190773777069,2.469997785980575
1763355449409354752,3.1063547134399414,-0.03783660754561424,0.005094029009342194,0.0005012270994484425,0.08575693517923355,-0.09583690762519836,-0.9916960597038269,-0.004244476556777954,-0.008060179650783539,0.004879653453826904,0.32688230061977186,-0.02486819900959508,0.05944369048736928,0.9428659108295661,0.09598422598810163,0.08626043051074644,2.470000941964653
1763355449419400704,3.116400718688965,-0.03781137615442276,0.008863267488777637,-0.0026749474927783012,0.08586999028921127,-0.09529608488082886,-0.9917383790016174,-0.004113391041755676,-0.0013836026191711426,0.006920874118804932,0.32688660306984724,-0.025010162200039706,0.05920561266780683,0.9428756166382088,0.09544091189657328,0.08636991382916738,2.4700173972651696
1763355449429446656,3.1264467239379883,-0.04279415309429169,-0.007540739607065916,-0.0057753995060920715,0.08596409857273102,-0.09486527740955353,-0.9917715191841125,0.0009499713778495789,-0.0008683651685714722,0.003963291645050049,0.32689971808252954,-0.025124557518314113,0.059016901434707045,0.9428798742203012,0.09500814375353296,0.08646122399083053,2.4700097703689763
1763355449439492608,3.1364927291870117,-0.059238500893116,-0.02258400432765484,-0.006601512432098389,0.0858990028500557,-0.09434856474399567,-0.9918264746665955,0.005501143634319305,-0.0036738887429237366,0.002538144588470459,0.3269290022119554,-0.025176658304268726,0.05876146641868514,0.9428842900924514,0.09448910759511317,0.08639132229559425,2.4699830392566167
1763355449449538816,3.146538734436035,-0.08471536636352539,-0.030799057334661484,-0.013276726007461548,0.08565309643745422,-0.09359822422266006,-0.9919188022613525,0.005487650632858276,-0.010207317769527435,0.003286600112915039,0.32697783508686834,-0.025180270496177156,0.05836566421608094,0.9428917484857552,0.09373543049614519,0.08613724454983461,2.46993994536353
1763355449459584768,3.1565847396850586,-0.0915030986070633,-0.046240199357271194,-0.012081677094101906,0.08531208336353302,-0.09269943833351135,-0.9920325875282288,0.002807416021823883,-0.014035791158676147,0.00677257776260376,0.32703610092855934,-0.025162666534137824,0.0578838885243797,0.9429017431029725,0.09283271801663893,0.0857861993691933,2.4698915508911283
1763355449469631744,3.1666316986083984,-0.09718015789985657,-0.05265016108751297,-0.011856107041239738,0.08484746515750885,-0.09194205701351166,-0.992142915725708,0.00583551824092865,-0.010413900017738342,0.004304170608520508,0.32709090094954263,-0.025063604544877337,0.0574487459573474,0.9429118972193369,0.09207208963169425,0.08531182532724987,2.4698489699056934
1763355449479677696,3.176677703857422,-0.0924965888261795,-0.052162934094667435,-0.011034965515136719,0.08431443572044373,-0.091347835958004,-0.992243230342865,0.004964739084243774,-0.0003422200679779053,0.004984378814697266,0.3271421435650254,-0.024905646453171493,0.05707966093020294,0.9429208801397019,0.09147535542009248,0.0847699168557764,2.469808417769941
1763355449489723648,3.1867237091064453,-0.08481763303279877,-0.05268065258860588,-0.010657062754034996,0.08373651653528214,-0.09077134728431702,-0.9923450946807861,0.00032414495944976807,0.00608506053686142,0.005284547805786133,0.3271888524693553,-0.024723849045095656,0.0567114776153718,0.9429315263614505,0.09089645995414047,0.08418303341880869,2.4697781489697634
1763355449499769600,3.1967697143554688,-0.0730261579155922,-0.05061304196715355,-0.006632671225816011,0.08320115506649017,-0.09014892578125,-0.9924468398094177,-0.0023143142461776733,0.0062408447265625,0.006591737270355225,0.3272270362360142,-0.02457027990219744,0.056328318506058836,0.9429453113470619,0.09027148079159575,0.08363879445975606,2.46976598508907
1763355449509815808,3.206815719604492,-0.056648511439561844,-0.049986932426691055,-0.009596236981451511,0.082799531519413,-0.08965958654880524,-0.9925247430801392,7.095187902450562e-05,0.007521525025367737,0.00471651554107666,0.3272664709109953,-0.024458132013816532,0.056030529026248575,0.9429523384312324,0.08978014680702016,0.08323041914415844,2.4697349945462856
1763355449519861760,3.2168617248535156,-0.0410849004983902,-0.0429975651204586,-0.006768669933080673,0.08255741745233536,-0.08934494107961655,-0.9925733208656311,-0.0013348832726478577,0.012089692056179047,0.0054669976234436035,0.3273141307792636,-0.02439234764047254,0.05584231453482872,0.9429485786621123,0.08946423741008186,0.08298412077667779,2.4696664277312173
1763355449529907712,3.226907730102539,-0.024156251922249794,-0.03553032875061035,-0.0058339000679552555,0.08238603174686432,-0.08936409652233124,-0.9925858378410339,-0.0029335245490074158,0.012017294764518738,0.0059830546379089355,0.32733883691804694,-0.024306618682284124,0.05582365985799437,0.9429433760445103,0.08948347224479769,0.08281160043112959,2.469623245646673
1763355449539954688,3.236954689025879,-0.011647583916783333,-0.03148798644542694,-0.001554733607918024,0.08219907432794571,-0.08960685133934021,-0.9925794005393982,-0.002105697989463806,0.009559251368045807,0.004191398620605469,0.3273558965936468,-0.02417726250022073,0.05590836249789743,0.9429357718457508,0.08972720105610123,0.0826250605044585,2.4695842404272725
1763355449550000640,3.2470006942749023,-0.003979543689638376,-0.020736269652843475,-0.0007893410511314869,0.08214455097913742,-0.08985619246959686,-0.992561399936676,-0.0023563355207443237,0.009259268641471863,0.0038223862648010254,0.3273585885757418,-0.024110356156700166,0.05601775740784887,0.9429300725971386,0.08997755176622958,0.08257199176576806,2.469567440905814
1763355449560046592,3.257046699523926,0.00020022131502628326,-0.009937085211277008,-0.00023522600531578064,0.08217647671699524,-0.08989416062831879,-0.9925553202629089,-0.005455285310745239,0.0074051544070243835,0.0059983134269714355,0.32736219834552105,-0.024119020376710567,0.05604116190979636,0.9429272310235347,0.0900156784488758,0.08260444628746072,2.4695557267774486
1763355449570092800,3.267092704772949,0.005929479841142893,-0.0005515730008482933,-0.0013154041953384876,0.08218687027692795,-0.0898093730211258,-0.9925621151924133,-0.006808459758758545,0.00609966367483139,0.0062493085861206055,0.32736804498173044,-0.024137515000054083,0.0560027867756424,0.9429269723277061,0.08993054407201297,0.08261428373091761,2.4695475291989952
1763355449580138752,3.2771387100219727,0.009536098688840866,0.012394685298204422,0.004679726902395487,0.08223418891429901,-0.0897621214389801,-0.992562472820282,-0.004231266677379608,0.0087989941239357,0.005257844924926758,0.3273610807359964,-0.024168083211052068,0.055988015361580726,0.9429295058321759,0.08988310193440843,0.08266160247624671,2.469562235484388
1763355449590184704,3.287184715270996,0.013983579352498055,0.02243320643901825,0.004522334318608046,0.08243566006422043,-0.08972303569316864,-0.9925493001937866,-0.004997313022613525,0.009858548641204834,0.0069689154624938965,0.32734705183867224,-0.02427069479705932,0.056002474009028504,0.9429308442245012,0.08984385937035681,0.08286429126119306,2.4695821245911946
1763355449600230656,3.2972307205200195,0.024073364213109016,0.028028372675180435,0.005276719108223915,0.08267562091350555,-0.08963353931903839,-0.9925374388694763,-0.007373496890068054,0.009143427014350891,0.007124841213226318,0.3273213778225323,-0.02440049408607693,0.05599906540138272,0.9429366607781596,0.08975399465481322,0.08310538123932046,2.469627494732818
1763355449610276608,3.307276725769043,0.03246338665485382,0.030318425968289375,0.008756404742598534,0.08291542530059814,-0.08965085446834564,-0.9925158619880676,-0.003951184451580048,0.008565649390220642,-0.001609504222869873,0.32727876413921364,-0.0245136906119972,0.05604589206894231,0.9429457732153157,0.0897713811965013,0.08334711648844963,2.4697025936455557
1763355449620323584,3.317323684692383,0.055501192808151245,0.03302859142422676,0.007275687530636787,0.08316797763109207,-0.08986189216375351,-0.9924756288528442,-0.0022811442613601685,0.008578330278396606,-0.00047475099563598633,0.3272471744143731,-0.024600479358187117,0.0561870841381935,0.9429459619503581,0.08998327661589343,0.08360317582831425,2.469741981340539
1763355449630369536,3.3273696899414062,0.06738315522670746,0.03691787272691727,0.011089600622653961,0.08341709524393082,-0.09026061743497849,-0.9924185872077942,-0.0018283501267433167,0.009358517825603485,0.0013602375984191895,0.32720394405036723,-0.024655549133917886,0.05641649331144815,0.9429458956393463,0.09038362585136143,0.08385723161898363,2.4697955671267535
1763355449640415744,3.3374156951904297,0.0690741315484047,0.03893161937594414,0.007387984544038773,0.08363159000873566,-0.09078289568424225,-0.9923528432846069,-0.0027142390608787537,0.008644841611385345,0.000867307186126709,0.3271602465495816,-0.024674000453477434,0.05669882966771381,0.9429436137622432,0.09090805767613054,0.08407738192145811,2.469844681753761
1763355449650461696,3.347461700439453,0.06681337207555771,0.03083348087966442,0.010696695186197758,0.0837896391749382,-0.09132519364356995,-0.9922897815704346,-0.001056477427482605,0.0025495588779449463,0.0031082630157470703,0.3271166407756976,-0.0246624638436414,0.05698133684561973,0.9429420661290135,0.091452619617158,0.08424085289020153,2.469895832195961
1763355449660507648,3.3575077056884766,0.05739253759384155,0.02528601512312889,0.009935031644999981,0.08392693847417831,-0.09172602742910385,-0.9922412037849426,0.003002382814884186,-0.0031226053833961487,0.005379021167755127,0.32706877632462883,-0.024664598753248262,0.05719314619053058,0.9429457456269718,0.09185514227193531,0.08438235523676405,2.4699652974716546
1763355449670553600,3.3675537109375,0.048686396330595016,0.020376479253172874,0.013544413261115551,0.08400747179985046,-0.09197454154491425,-0.9922114014625549,0.0017621815204620361,-0.003987982869148254,0.006554663181304932,0.32701432738914715,-0.02466526251766191,0.05732306181096357,0.9429566783615368,0.09210470919499036,0.0844654657354321,2.470061113010052
1763355449680599808,3.3775997161865234,0.0378614105284214,0.016323447227478027,0.01459156908094883,0.0839850902557373,-0.09215585142374039,-0.9921964406967163,0.0007927417755126953,-0.002845369279384613,0.004998564720153809,0.3269488650048827,-0.024628909956298156,0.05740374530203147,0.942975393528085,0.09228679337607935,0.08444433293275456,2.470190575872658
1763355449690646784,3.3876469135284424,0.037224382162094116,0.01097928173840046,0.012522026896476746,0.08399471640586853,-0.0922781229019165,-0.9921842813491821,0.00021854043006896973,0.001900315284729004,0.003704667091369629,0.3268976788701121,-0.024616531506889385,0.057462064780152845,0.9429899225729,0.09240958830695216,0.08445499394476735,2.4702913483453464
1763355449700692736,3.3976926803588867,0.030269905924797058,0.0054685696959495544,0.010059578344225883,0.08398669958114624,-0.09236623346805573,-0.9921767711639404,0.0013709664344787598,0.005223289132118225,0.0026595592498779297,0.32685342658371025,-0.024600986879383682,0.057501424279740074,0.9430032934540974,0.09249807543637902,0.08444761020544032,2.470380536413489
1763355449710738688,3.40773868560791,0.022903069853782654,0.005002249963581562,0.007457403931766748,0.08397743105888367,-0.09236618876457214,-0.9921775460243225,0.002555161714553833,-5.628913640975952e-05,0.0036979317665100098,0.3268197360251731,-0.024598659474846678,0.05749898814156245,0.943015244136001,0.09249803391591775,0.08443826829577876,2.470452681453728
1763355449720784640,3.4177846908569336,0.01750151440501213,0.002863598056137562,0.009772134944796562,0.08394680917263031,-0.09233812242746353,-0.992182731628418,0.000495322048664093,-0.008919194340705872,0.005564749240875244,0.3267879221304058,-0.024590703302065454,0.05747976750214268,0.9430275805290168,0.0924698460471871,0.08440718627220181,2.4705235670842534
1763355449730830592,3.427830696105957,0.0337609127163887,0.00040070666000247,0.007061036303639412,0.08393969386816025,-0.09249689429998398,-0.9921685457229614,0.0001972690224647522,-0.011918999254703522,0.010845303535461426,0.32675742896522897,-0.024563168662831498,0.05755319393439048,0.9430344264605647,0.09262929674597184,0.08440126646194247,2.4705793719065436
1763355449740876800,3.4378767013549805,0.02741333283483982,-0.0004180152900516987,0.0020412439480423927,0.08402212709188461,-0.09289320558309555,-0.9921245574951172,0.001961149275302887,-0.01077500730752945,0.009107589721679688,0.32674966163334757,-0.02453771112430087,0.057754851747699364,0.943025419760983,0.09302732868128576,0.08448748805879008,2.470567268075997
1763355449750922752,3.447922706604004,0.014739349484443665,-0.0045762755908071995,8.568540215492249e-05,0.08404109627008438,-0.09318241477012634,-0.9920958280563354,0.0004468187689781189,-0.010119587182998657,0.007766604423522949,0.32675663903060115,-0.024498857796014746,0.0578955250746237,0.9430153923870994,0.09331779326372765,0.08450890497864459,2.4705341785716373
1763355449760969984,3.457969903945923,-0.0017688199877738953,-0.01471542939543724,-0.002687109401449561,0.08396598696708679,-0.0932929739356041,-0.9920917749404907,0.0003998503088951111,-0.021529406309127808,0.009059607982635498,0.32676957137985696,-0.024444380247309463,0.05793594369793982,0.9430098552023934,0.09342883569684714,0.08443408248723333,2.4705048720364737
1763355449771015936,3.4680159091949463,-0.017419951036572456,-0.012612596154212952,-0.0056272391229867935,0.08385268598794937,-0.0931299552321434,-0.9921166896820068,0.0013066157698631287,-0.018350757658481598,0.005681753158569336,0.3267883588680581,-0.024416304964084746,0.057840263489367445,0.9430099400073333,0.09326510878988327,0.08431858054967373,2.470481677830435
1763355449781061632,3.4780616760253906,-0.034176625311374664,-0.014412827789783478,-0.0033868991304188967,0.08376538753509521,-0.09270947426557541,-0.9921634793281555,0.0007988214492797852,-0.002581663429737091,0.008078396320343018,0.32681518205249904,-0.024442266216479096,0.05762682070898426,0.9430130067781297,0.09284279892757898,0.08422726340457577,2.470454965616415
1763355449791107584,3.488107681274414,-0.025869961827993393,-0.014042913913726807,-0.00421327818185091,0.08370476216077805,-0.09240978211164474,-0.9921965003013611,0.0006916001439094543,0.003344230353832245,0.007836759090423584,0.32683205143051736,-0.024461666015787052,0.0574749038210002,0.9430158751456931,0.09254181174316943,0.08416379478773843,2.4704404976022323
1763355449801153536,3.4981536865234375,-0.014329086989164352,-0.016541292890906334,-0.00676156859844923,0.0835779681801796,-0.09241321682929993,-0.992206871509552,0.00048269331455230713,0.012213028967380524,0.0004924535751342773,0.3268502761059108,-0.024399963437266452,0.05745602799739459,0.9430123595954483,0.09254526553836427,0.08403603644276506,2.4704095266377775
1763355449811199744,3.508199691772461,0.0024666711688041687,-0.018899254500865936,-0.0036342183593660593,0.08345426619052887,-0.09265349060297012,-0.9921948909759521,0.0005453750491142273,0.019808031618595123,-0.0019915103912353516,0.3268693308102399,-0.024300836095996897,0.05755015091352298,0.9430026396248264,0.09278657373335779,0.08391324394481095,2.4703626902051514
1763355449821245696,3.5182456970214844,-0.0009393454529345036,-0.025613781064748764,-0.007525806315243244,0.08331984281539917,-0.09291531890630722,-0.9921817183494568,0.00356370210647583,0.01767423003911972,0.004053056240081787,0.32689319757846064,-0.024192803629172022,0.05765286221557981,0.9429908697204593,0.0930495352041313,0.08377982409006154,2.470304935060117
1763355449831292928,3.5282928943634033,-0.017417121678590775,-0.04804425686597824,-0.005988097283989191,0.08298405259847641,-0.09312688559293747,-0.9921900033950806,0.0007714331150054932,0.00868474692106247,0.012545287609100342,0.32692783231491723,-0.02399701742797594,0.057698653865214895,0.9429809994530024,0.09326201981528526,0.08344305511537904,2.470239619494577
1763355449841338880,3.5383388996124268,-0.021069247275590897,-0.06572271883487701,-0.01771097630262375,0.08250559121370316,-0.09341423213481903,-0.992202877998352,0.0012346357107162476,0.0018157288432121277,0.018539607524871826,0.3269912161058402,-0.023719491965432816,0.05775753378875829,0.9429624132289011,0.0935506309725373,0.08296308339937966,2.4701178118834615
1763355449851384832,3.54838490486145,-0.02578304149210453,-0.11270354688167572,-0.011291693896055222,0.0816330686211586,-0.09356499463319778,-0.9922608733177185,0.009934931993484497,-0.009813301265239716,-0.0013151764869689941,0.32706633884257236,-0.02327711427191813,0.05768656896195341,0.9429518341531469,0.09370204923512544,0.0820849022246786,2.4700037104755608
1763355449861430784,3.5584309101104736,-0.032422568649053574,-0.1042725071310997,-0.02353752963244915,0.0806659534573555,-0.09327436238527298,-0.9923673272132874,0.009498231112957,-0.01420854777097702,0.013775408267974854,0.3271799693298248,-0.022860090536523294,0.057391254223113065,0.9429406243547857,0.0934101444901482,0.08110806043047719,2.4698389583597575
1763355449871476736,3.568476676940918,-0.061869408935308456,-0.1047247126698494,-0.021951084956526756,0.079762302339077,-0.09274011105298996,-0.9924904108047485,0.0018874704837799072,-0.016177117824554443,-0.0060904622077941895,0.3273151388338345,-0.022511893776330758,0.056991240534357265,0.9429263210304144,0.09287357019043838,0.08019346778717056,2.4696380331916234
1763355449881522688,3.5785226821899414,-0.0990346148610115,-0.10723047703504562,-0.0183431226760149,0.0788276270031929,-0.09163254499435425,-0.9926679730415344,0.0017387792468070984,-0.03725844621658325,0.003318607807159424,0.32744360494041186,-0.02224371967502885,0.05631372885129681,0.9429287937600245,0.0917612647419518,0.07924357557222811,2.469484893998584
1763355449891568640,3.588568687438965,-0.12937362492084503,-0.11471103131771088,-0.023497404530644417,0.07786022871732712,-0.09004463255405426,-0.9928895831108093,0.004582993686199188,-0.03324637562036514,0.0054323673248291016,0.3275748378627884,-0.02203901357616369,0.05540293089443081,0.9429418810391103,0.09016676213098357,0.07825766337194406,2.4693528895672836
1763355449901615872,3.598615884780884,-0.14731916785240173,-0.11928783357143402,-0.020235920324921608,0.07694999873638153,-0.08832704275846481,-0.9931148290634155,0.0037384778261184692,-0.015692122280597687,-0.00027811527252197266,0.3277039062272253,-0.021883040011098042,0.054440112828641425,0.9429568921038959,0.08844229859711214,0.0773289842146326,2.4692274716812346
1763355449911661824,3.6086618900299072,-0.15531077980995178,-0.11566807329654694,-0.021597329527139664,0.07598774880170822,-0.08673759549856186,-0.9933289885520935,0.0025492310523986816,-0.0017633810639381409,-0.003588736057281494,0.32782617664988084,-0.02168202017105614,0.05352946155451915,0.9429710353909313,0.08684672631650905,0.07634937279409396,2.469109704898727
