time,seconds_elapsed,rotationRateX,rotationRateY,rotationRateZ,gravityX,gravityY,gravityZ,accelerationX,accelerationY,accelerationZ,quaternionW,quaternionX,quaternionY,quaternionZ,pitch,roll,yaw
1761860585063278336,2.352278470993042,-0.049888137727975845,-4.75393608212471e-05,-0.11175089329481125,0.1252177208662033,-0.402579128742218,-0.9067803025245667,0.009669944643974304,0.04436379671096802,-0.019550204277038574,0.3675322762981291,0.018192058622704732,0.2151252867761282,0.9046048994199967,0.4143326242982428,0.13722263131898332,2.340872809466736
1761860585073323520,2.362323522567749,-0.06822995841503143,0.01519249938428402,-0.08842631429433823,0.12569737434387207,-0.4019341766834259,-0.9070000648498535,0.00505518913269043,0.020891696214675903,-0.012814998626708984,0.3679848293192561,0.01794164225823194,0.2148908488661545,0.9044817130416731,0.4136281952871941,0.13770870578774416,2.3398673037410647
1761860585083367424,2.3723673820495605,-0.08290956914424896,0.022271182388067245,-0.07802081108093262,0.1213439404964447,-0.44865360856056213,-0.8854296207427979,0.010156318545341492,0.046309858560562134,-0.03093695640563965,0.3643409346148113,0.02877609917713904,0.23760708573427072,0.8999836580974863,0.4652582435622176,0.13619683877105357,2.3399505502928633
1761860585093412352,2.3824124336242676,-0.0966336727142334,0.02286616526544094,-0.08434395492076874,0.1165047138929367,-0.43674764037132263,-0.8920079469680786,0.019985176622867584,0.030512899160385132,-0.027669787406921387,0.3650381914050225,0.02875115217564858,0.23058491299050207,0.901527147838977,0.451980099466278,0.12987432786298786,2.3422270484562757
1761860585103456512,2.392456531524658,-0.10750416666269302,0.03533615171909332,-0.08821219205856323,0.11761092394590378,-0.42290157079696655,-0.8985109329223633,0.022068031132221222,0.021015584468841553,-0.02568340301513672,0.36640584168051554,0.025692474994605682,0.22379549531203222,0.9027746946453592,0.43664492716329234,0.1301553910045332,2.341571071508154
1761860585113500416,2.4025003910064697,-0.09663859754800797,0.041887927800416946,-0.07343839108943939,0.12131087481975555,-0.4097341001033783,-0.9041026830673218,0.019558273255825043,0.002721160650253296,-0.025722146034240723,0.36789172750752414,0.02158859815511536,0.21790501293389056,0.9037184882510131,0.4221625637507313,0.1333815527626564,2.3397709859712874
1761860585123545344,2.4125454425811768,-0.08915191888809204,0.03580952808260918,-0.05066996440291405,0.12431459128856659,-0.39616909623146057,-0.9097229838371277,0.010847754776477814,-0.012308657169342041,-0.02005600929260254,0.36922809308986443,0.01770200491183999,0.21171949785073801,0.9047275754975472,0.4073407751371827,0.13580985651516841,2.338546071464944
1761860585133589504,2.4225895404815674,-0.0754476934671402,0.04236609488725662,-0.05233372747898102,0.12638579308986664,-0.3853796124458313,-0.9140619039535522,0.012331858277320862,-0.009060084819793701,-0.012024521827697754,0.3702575506549356,0.014757462126296281,0.20676379487352997,0.9055054879571041,0.39561919027283504,0.1373971296350335,2.337708872714273
1761860585143634432,2.4326343536376953,-0.08360601961612701,0.0396435484290123,-0.03543597459793091,0.12827186286449432,-0.3803929388523102,-0.9158862233161926,0.014443591237068176,-0.0014887750148773193,-0.006309211254119873,0.37083350990622765,0.01298469299790975,0.20466629538924394,0.905773512342671,0.3902211365505497,0.13914711694440385,2.3368655356729544
1761860585153678336,2.442678451538086,-0.06214004382491112,0.03992094844579697,-0.010397111065685749,0.12906797230243683,-0.3795291483402252,-0.9161326885223389,0.015097066760063171,-0.0005825459957122803,-0.0009663105010986328,0.37093224473076564,0.012457214243518545,0.20439783094257882,0.9058011542115972,0.3892873122374463,0.13996234679189834,2.3366064227657097
1761860585163722496,2.4527225494384766,-0.01623779907822609,0.01955442503094673,0.01959168165922165,0.12971413135528564,-0.3829841911792755,-0.9146023392677307,0.014099940657615662,0.0051918625831604,-0.0018100142478942871,0.37063978859175084,0.012792851466247507,0.2062406071818812,0.905498447131841,0.39302462903639374,0.14088611962261494,2.336468194867983
1761860585173767424,2.4627673625946045,-0.009608525782823563,-0.0009043784812092781,0.013050513342022896,0.13091035187244415,-0.3866981863975525,-0.9128674864768982,0.018122240900993347,0.00980609655380249,-0.0016832947731018066,0.37036570080094067,0.012927531851208674,0.2083246172524173,0.9051315256825284,0.3970485515463033,0.14243455050432124,2.336094410283939
1761860585183811328,2.472811460494995,-0.031770553439855576,-0.014436433091759682,-0.011787991970777512,0.13209277391433716,-0.38810116052627563,-0.9121014475822449,0.026171386241912842,0.024255335330963135,0.004752814769744873,0.37035628215513955,0.012657173822949674,0.20925840655712483,0.904923815647024,0.39857035995402157,0.14382253531353195,2.3355567484139907
1761860585193855488,2.4828555583953857,-0.07529905438423157,-0.01110168918967247,-0.0190602857619524,0.1329299807548523,-0.3890790343284607,-0.911562979221344,0.024754345417022705,0.017664849758148193,0.0054351091384887695,0.37040706398031087,0.012476006765833181,0.2099115195844386,0.9047541438736313,0.3996316428068283,0.14480574160632248,2.3350492660482307
1761860585203900416,2.4929003715515137,-0.1389414221048355,0.014350407756865025,-0.0011113784275949001,0.13284946978092194,-0.3894455134868622,-0.9114182591438293,0.02021142840385437,-0.017887860536575317,0.0003007054328918457,0.3703526614095102,0.012576224941950421,0.21007788762921736,0.9047364404142506,0.4000295041732329,0.14474192575371064,2.335121553660054
1761860585213944320,2.5029444694519043,-0.1505955457687378,0.04244742542505264,-0.002691698493435979,0.13354966044425964,-0.38795891404151917,-0.9119497537612915,0.016535773873329163,-0.055171579122543335,-0.005942702293395996,0.3703646360315083,0.011945950293390012,0.20948130217676672,0.9048783928877278,0.39841603190301633,0.14541050077377682,2.335194954137667
1761860585223989504,2.5129895210266113,-0.14991270005702972,0.03314952924847603,-0.026726461946964264,0.13466958701610565,-0.3857567012310028,-0.9127189517021179,0.009525969624519348,-0.06115797162055969,-0.00721818208694458,0.37048708754758497,0.010998170462269374,0.20861343627625484,0.9050408235293999,0.39602787734628125,0.1464907524375934,2.3350522005898475
1761860585234033408,2.523033380508423,-0.10066167265176773,0.023533785715699196,-0.03854716569185257,0.1358439177274704,-0.3839617073535919,-0.9133015871047974,0.005086243152618408,-0.028834283351898193,-0.0015237927436828613,0.37073307525233085,0.01013684413174785,0.20795777883937294,0.9051010070737653,0.39408308406619974,0.14765684254232014,2.3345476517505617
1761860585244077568,2.5330774784088135,-0.07774250954389572,0.0031827082857489586,-0.018199818208813667,0.136635422706604,-0.38263827562332153,-0.9137389063835144,0.011832579970359802,-0.001928955316543579,0.0001952052116394043,0.3709302392697612,0.009540362428455719,0.20745973455812933,0.9051410779936576,0.3926502024744227,0.14843459938040496,2.33416044375542
1761860585254122496,2.5431225299835205,-0.07629910856485367,0.015265503898262978,-0.008542130701243877,0.1375734508037567,-0.3815329968929291,-0.9140602350234985,0.012374669313430786,0.008898109197616577,-0.004427313804626465,0.3710622584874862,0.008904823796030423,0.20710043287443222,0.905175592000577,0.39145418540333565,0.1493868105508452,2.3338398723672045
1761860585264166400,2.553166389465332,-0.09230630099773407,0.024833176285028458,-0.0236893929541111,0.1390974223613739,-0.3799142837524414,-0.9145037531852722,0.0072343796491622925,0.013627052307128906,0.004027068614959717,0.3712693083451602,0.007906837803681663,0.2066049712203978,0.9052133070428297,0.3897036167817201,0.15094460009151706,2.333304673810391
1761860585275466496,2.5644664764404297,-0.054903335869312286,0.02495388314127922,-0.008537514135241508,0.1404675543308258,-0.3788594901561737,-0.9147318601608276,-0.004572764039039612,0.016280144453048706,0.008420825004577637,0.37142487887897263,0.007084472264488939,0.20635863232275645,0.905212445007948,0.3885636202459408,0.15237120162831516,2.3328170000834207
1761860585294299392,2.583299398422241,-0.03997825086116791,0.031527429819107056,-0.027760744094848633,0.14176850020885468,-0.38151922821998596,-0.9134247303009033,0.0016793608665466309,0.023319154977798462,0.00595402717590332,0.3712661387045516,0.006980427799879139,0.20793966262109145,0.904916460709784,0.39143929735473054,0.15397692940535065,2.332339283268044
1761860585304343552,2.593343496322632,0.004657129757106304,0.015293866395950317,-0.03708447143435478,0.14205145835876465,-0.38342925906181335,-0.9125806093215942,-0.0022351741790771484,0.025290220975875854,0.009962201118469238,0.3712357219406695,0.007230690196998728,0.2089435383654707,0.9046957748110188,0.39350648795000465,0.15441985252279503,2.3319710926464894
1761860585314387200,2.6033873558044434,0.013921201229095459,0.004881971515715122,-0.02308725193142891,0.14210368692874908,-0.38441216945648193,-0.9121589064598083,-0.010359302163124084,0.019864439964294434,0.0034827589988708496,0.3712878903807099,0.007419142556148756,0.20944095123505954,0.9045577989033445,0.394570977675621,0.15454602295899836,2.331654235930834
1761860585324432384,2.6134324073791504,-0.017048697918653488,0.004207925871014595,-0.026356814429163933,0.14243516325950623,-0.3843640685081482,-0.9121274352073669,-0.004633039236068726,0.006815850734710693,0.010165154933929443,0.37140684099988036,0.0072813141068490544,0.20948330204177587,0.904500267591889,0.3945188724888331,0.1549060367096502,2.3313162812886175
1761860585334476544,2.623476505279541,-0.036394599825143814,0.040060095489025116,-0.05831670016050339,0.1430448591709137,-0.3835415840148926,-0.9123782515525818,-0.00011579692363739014,-0.003222912549972534,0.010171830654144287,0.37162337431100423,0.006877153632267598,0.20919749870244922,0.9044806339376003,0.3936281286649919,0.1555164207429978,2.3308407897763903
1761860585344521472,2.633521556854248,0.029565777629613876,0.03944277763366699,-0.06381026655435562,0.14381852746009827,-0.38295960426330566,-0.9125010371208191,-0.009220749139785767,-0.011739492416381836,-0.0003560185432434082,0.37189924338209246,0.006458946141390705,0.20906400248073617,0.9044011800456501,0.3929980386448047,0.15632324259189312,2.3301466060485585
1761860585354565376,2.6435654163360596,0.0069713834673166275,0.037328094244003296,-0.027164284139871597,0.14418162405490875,-0.3825303316116333,-0.9126238226890564,-0.017396345734596252,0.0144883394241333,0.0039629340171813965,0.3720874501121131,0.006244281930783044,0.20892367434890158,0.9043577378116306,0.3925333607321306,0.15669074706464123,2.329721203644686
1761860585364609536,2.65360951423645,0.020538857206702232,0.0355464406311512,-0.051037922501564026,0.1445022076368332,-0.38210904598236084,-0.9127495884895325,0.005888417363166809,0.04371488094329834,0.01241999864578247,0.37223179801852313,0.006041052234128371,0.20877911475897606,0.9043330443020856,0.3920774529043551,0.15701216398002105,2.3294018862665697
1761860585374654464,2.6636545658111572,0.05377430468797684,0.04260967671871185,-0.06723367422819138,0.14510707557201385,-0.38165220618247986,-0.9128447771072388,-2.650916576385498e-05,0.04626402258872986,0.00015556812286376953,0.3725334022377082,0.005733484171945158,0.20867379484828402,0.9042352019882557,0.3915831531966085,0.15764242482357252,2.328670085489229
1761860585384698368,2.6736984252929688,0.10347501933574677,0.039916690438985825,-0.019017942249774933,0.1454913318157196,-0.381332129240036,-0.9129173159599304,-0.010466337203979492,0.0345761775970459,0.0021965503692626953,0.3727525684328034,0.005538336065069539,0.20859208667938037,0.9041648855163061,0.39123689384701504,0.1580406049517269,2.328149848733774
1761860585394743552,2.683743476867676,0.10731882601976395,0.03274685889482498,-0.006280308123677969,0.14528170228004456,-0.3816711902618408,-0.9128090143203735,-0.002200022339820862,0.04313969612121582,0.012891411781311035,0.3727680911684049,0.005709666421225065,0.20871722394528014,0.9041286070300498,0.39160368545001095,0.157835064475307,2.3281031573346653
1761860585404787456,2.6937875747680664,0.13178156316280365,0.016322080045938492,-0.015308424830436707,0.14534519612789154,-0.38275137543678284,-0.9123465418815613,0.0015206485986709595,0.055969178676605225,0.014626145362854004,0.372770558823757,0.005901877640506798,0.20926516984020563,0.9039996895174794,0.39277263917557304,0.15798163743063337,2.327872585625777
1761860585414831360,2.703831434249878,0.10578633844852448,0.016052667051553726,-0.01640830934047699,0.1454973965883255,-0.38406115770339966,-0.9117716550827026,0.011439248919487,0.03548938035964966,0.0026987791061401367,0.3727907996860481,0.006103881664314932,0.2099450495382961,0.9038322839054155,0.3941907945939351,0.15824237914631695,2.3275345965465872
1761860585424876544,2.713876485824585,0.0431746281683445,0.02184504270553589,-0.020820636302232742,0.14534753561019897,-0.38505157828330994,-0.9113777279853821,0.019737303256988525,0.011501163244247437,0.00476151704788208,0.37280827715981296,0.006381522718482689,0.21040533909921608,0.9037161439029643,0.3952637030070973,0.15814928362004457,2.3273412963680005
1761860585434920448,2.7239205837249756,-0.03449486568570137,0.04418763518333435,-0.04233160614967346,0.1451445370912552,-0.3845536410808563,-0.9116203188896179,0.012265130877494812,-0.019666939973831177,0.00622481107711792,0.37290755190589076,0.006397556730791535,0.21011644803534354,0.9037422771988427,0.39472421859210766,0.15789073610096502,2.327270392379971
1761860585444964352,2.733964443206787,-0.05230661854147911,0.07676687836647034,-0.061438724398612976,0.14611364901065826,-0.3830844461917877,-0.9120839238166809,-0.0013687759637832642,-0.05171474814414978,-0.002955138683319092,0.37317147442614745,0.005702825007303339,0.20958413147285446,0.9037615963773685,0.3931331701179613,0.15884791559856398,2.326725524578638
1761860585455009536,2.744009494781494,-0.08702921122312546,0.09494804590940475,-0.07773096859455109,0.1471635401248932,-0.38166067004203796,-0.912511944770813,-0.010902553796768188,-0.060691624879837036,0.0016843080520629883,0.37344760576641245,0.004982386102675779,0.20909139472924024,0.9037658972557278,0.3915922989457153,0.159896243893652,2.3261250857396094
1761860585465053440,2.7540533542633057,-0.11184321343898773,0.10365738719701767,-0.08738013356924057,0.14822076261043549,-0.38008320331573486,-0.9129990935325623,-0.01041865348815918,-0.02949318289756775,0.02248096466064453,0.3737423195852165,0.004231262070918471,0.20852470145190977,0.9037787864714181,0.389886252593832,0.16094080745978356,2.325512558069818
1761860585475098368,2.7640984058380127,-0.1289815902709961,0.09856288880109787,-0.0853685513138771,0.1494511365890503,-0.3783518373966217,-0.9135175347328186,-0.002585276961326599,-0.014485687017440796,0.015339434146881104,0.374054679127689,0.003371471867898359,0.2079179448935706,0.9037930728915505,0.3880151117832216,0.16216306372565817,2.324848729263502
1761860585485142528,2.7741425037384033,-0.17351390421390533,0.09917435050010681,-0.09884494543075562,0.15070101618766785,-0.3761870861053467,-0.9142059087753296,0.007227465510368347,-0.00601506233215332,0.01573789119720459,0.37441388148634286,0.0024244232604028037,0.20710179601409875,0.9038347852906052,0.38567764426558904,0.16337438222791414,2.324162003414482
1761860585495186432,2.784186363220215,-0.23523539304733276,0.10860360413789749,-0.10986369103193283,0.15217919647693634,-0.3737953305244446,-0.9149417877197266,-0.003879055380821228,0.0003059804439544678,0.011529982089996338,0.3748164127794905,0.0013338269702352498,0.20622151750347492,0.9038714020199279,0.3830976300918946,0.16481782791126415,2.3233678250369008
1761860585505231360,2.794231414794922,-0.29023340344429016,0.11796834319829941,-0.12243594229221344,0.15386906266212463,-0.37125539779663086,-0.9156930446624756,-0.011702924966812134,-0.01787424087524414,0.007749319076538086,0.3752318695964082,0.00011670419811618603,0.20531309990367783,0.9039068137857011,0.38036068662740374,0.16648034663986971,2.3225235860366817
1761860585515275520,2.8042755126953125,-0.41731905937194824,0.1512654423713684,-0.20865435898303986,0.15563292801380157,-0.36838221549987793,-0.9165549278259277,-0.01674741506576538,-0.03637242317199707,0.006154537200927734,0.3757581211778862,-0.0011782286045296491,0.20425753766405225,0.9039266629503728,0.37726825205570125,0.1681977756679703,2.3214835847510407
1761860585525320448,2.8143205642700195,-0.5478461384773254,0.13084858655929565,-0.348796010017395,0.15765197575092316,-0.36435607075691223,-0.9178183078765869,-0.05702027678489685,-0.05286496877670288,-0.0046822428703308105,0.3768457907897096,-0.0027027855475679407,0.20269072737793115,0.9038231551899318,0.37294125764570185,0.17010815940959725,2.319365840902775
1761860585535364352,2.824364423751831,-0.745351254940033,0.19561932981014252,-0.34897109866142273,0.16022205352783203,-0.3585565388202667,-0.9196553826332092,-0.058049216866493225,-0.17498227953910828,-0.015815138816833496,0.3782230395278202,-0.004785903648189164,0.20037313063806056,0.9037559770097064,0.3667211700898988,0.1724884084522085,2.3168221971916685
1761860585545408512,2.8344085216522217,-0.7828525900840759,0.3603576719760895,-0.3530057966709137,0.16410396993160248,-0.3507083058357239,-0.9219943284988403,-0.07932615280151367,-0.23228421807289124,-0.007159054279327393,0.37951607456181197,-0.007922887216943309,0.1973323374183731,0.9038610337199241,0.3583273302080512,0.17614343692578072,2.3145546863244983
1761860585555453440,2.8444535732269287,-0.7520977258682251,0.38293910026550293,-0.3806312084197998,0.16894643008708954,-0.34300583600997925,-0.92401522397995,-0.11569324135780334,-0.16225844621658325,0.011173427104949951,0.380743494443647,-0.011493711346412298,0.1945771998425838,0.9039038022532432,0.35011499664113155,0.1808418999243159,2.3121915529925667
1761860585565497344,2.8544974327087402,-0.690022885799408,0.30792638659477234,-0.4567105174064636,0.17356392741203308,-0.3355218768119812,-0.9259052872657776,-0.10148142278194427,-0.006076604127883911,0.04103291034698486,0.3822676427554106,-0.014852754793129,0.19190295804518176,0.9037831935737202,0.3421591706799471,0.1853027511702043,2.3091994531505167
1761860585575541504,2.864541530609131,-0.6768460869789124,0.2568889260292053,-0.5196055769920349,0.1778290718793869,-0.32836729288101196,-0.927659273147583,-0.0742218941450119,0.04743772745132446,0.025559663772583008,0.3841543361889255,-0.01790732345033389,0.18934013795510213,0.903468337747644,0.33457449361710334,0.18939885969478942,2.3054371692187727
1761860585585586432,2.874586582183838,-0.7900477647781372,0.24344265460968018,-0.5859062671661377,0.18191026151180267,-0.32063883543014526,-0.9295694231987,-0.07291674613952637,-0.007211506366729736,0.013553857803344727,0.3863667510900057,-0.020932379655296145,0.1864862183386202,0.9030533213111929,0.32640386732747456,0.19325082913179215,2.3011182319618912
1761860585595630336,2.8846304416656494,-1.0216691493988037,0.2922511100769043,-0.6402773857116699,0.1863165646791458,-0.3110620677471161,-0.9319477081298828,-0.10739809274673462,-0.08118036389350891,0.029237747192382812,0.38880055050932794,-0.02445238922629628,0.1828338749196623,0.9026671567052524,0.316310331413138,0.19732025924011784,2.296604627197493
1761860585605675520,2.8946754932403564,-1.2570645809173584,0.359703928232193,-0.6766881346702576,0.19140760600566864,-0.2991344928741455,-0.9348163604736328,-0.13386671245098114,-0.1424395740032196,0.030336439609527588,0.3859621982036374,-0.02982585022847253,0.17805118520121013,0.9046774418030139,0.3037854718492827,0.2019627188704012,2.3040744673725064
1761860585615719424,2.904719352722168,-1.4795101881027222,0.3781646490097046,-0.735319972038269,0.19693365693092346,-0.284869909286499,-0.9381184577941895,-0.11496345698833466,-0.1712305247783661,0.012108385562896729,0.3886976382455572,-0.03476683939660849,0.1724297770165559,0.9044188493856954,0.2888707064123592,0.20691948545841296,2.299572876297269
1761860585625763328,2.9147634506225586,-1.7137460708618164,0.3864302933216095,-0.852706789970398,0.20272594690322876,-0.2682693600654602,-0.9417716264724731,-0.08256296813488007,-0.1814681887626648,0.016646504402160645,0.3909075303785857,-0.04042301823126234,0.16577146136776102,0.9044762236051803,0.27159609507423244,0.21202484935433233,2.296621601802443
1761860585635808512,2.9248085021972656,-2.0462517738342285,0.41483381390571594,-1.000243902206421,0.20886115729808807,-0.24851477146148682,-0.9458422064781189,-0.08198431134223938,-0.20436608791351318,0.023066937923431396,0.3947355477522215,-0.04661223216609539,0.1578170050375333,0.9039386357980539,0.2511466156125468,0.21733260437750915,2.2905997785132115
1761860585645852416,2.934852361679077,-2.3454043865203857,0.49295923113822937,-1.079856276512146,0.21562835574150085,-0.22536645829677582,-0.9501128196716309,-0.10005828738212585,-0.2627774477005005,0.03775930404663086,0.3989888820039185,-0.053765118200408996,0.14850218979761357,0.9032521076169971,0.2273191594046721,0.22316995651872426,2.2841106215572413
1761860585655896320,2.9448964595794678,-2.6589736938476562,0.5801877975463867,-1.113671064376831,0.2231512814760208,-0.19903790950775146,-0.9542470574378967,-0.12172611057758331,-0.29798662662506104,0.05474144220352173,0.4041540477090853,-0.06184612991913,0.13802729545733206,0.9020992512748587,0.20037609236309953,0.2297224669179451,2.2759948218842787
1761860585665941504,2.954941511154175,-2.9483566284179688,0.5866755247116089,-1.1796197891235352,0.23089395463466644,-0.169451504945755,-0.9581096768379211,-0.12588298320770264,-0.2585422694683075,0.08214837312698364,0.40714154108149614,-0.0711070928268318,0.1260513425939567,0.9018262249058845,0.17027310426831813,0.23647996998613818,2.273176377628506
1761860585675985408,2.9649853706359863,-3.2636325359344482,0.5804140567779541,-1.2265080213546753,0.2383703589439392,-0.13678745925426483,-0.9614929556846619,-0.1133245974779129,-0.22713464498519897,0.10811471939086914,0.4109103874373501,-0.08084519835997375,0.11277217402441352,0.9010543942877924,0.13721766187894816,0.24301713815504306,2.2690919592450443
1761860585686030336,2.9750304222106934,-3.6247968673706055,0.6081194281578064,-1.3033416271209717,0.24559296667575836,-0.10030973702669144,-0.9641690850257874,-0.10159577429294586,-0.21660006046295166,0.13946205377578735,0.4126024391108146,-0.09158939124025255,0.0976055044000714,0.901023713204789,0.10047872198970426,0.2494158762107531,2.270134636787236
1761860585696074496,2.985074520111084,-3.881248712539673,0.6766487956047058,-1.3219380378723145,0.25286856293678284,-0.060623589903116226,-0.9655994176864624,-0.12084954977035522,-0.23692278563976288,0.17061656713485718,0.4152671239067383,-0.1029997669952865,0.08118699245226371,0.9001960793774895,0.06066078631600307,0.2561256602264807,2.2693446246812203
1761860585706118400,2.9951183795928955,-4.152810096740723,0.7740840315818787,-1.3319324254989624,0.26041269302368164,-0.018262533470988274,-0.9653246998786926,-0.15956735610961914,-0.21179422736167908,0.21691155433654785,0.4175666428759126,-0.1152479168916545,0.0636834547058852,0.899055375568669,0.01826354837251285,0.2634946057987898,2.2695610973995786
1761860585716163328,3.0051634311676025,-4.343372821807861,0.8699778914451599,-1.3825492858886719,0.26834702491760254,0.026550589129328728,-0.9629563689231873,-0.18839097023010254,-0.13798552751541138,0.27408307790756226,0.42092010431425214,-0.12829494856054272,0.04541174537155262,0.8968302930354931,-0.026553708835462517,0.27177494712321626,2.2675800791232095
1761860585726207488,3.015207529067993,-4.433563232421875,0.9254566431045532,-1.4186636209487915,0.27636605501174927,0.07276950776576996,-0.9582934975624084,-0.19796639680862427,-0.08822665363550186,0.29084354639053345,0.4234049232781983,-0.14195061737532727,0.026519421444231216,0.8943572996011769,-0.07283388169161753,0.28077533231197604,2.2675760804814584
1761860585736251392,3.0252513885498047,-4.537117004394531,0.9769085645675659,-1.4365179538726807,0.28406742215156555,0.1197536289691925,-0.951296329498291,-0.19988471269607544,-0.0537898913025856,0.2950311303138733,0.42643273580679303,-0.15587512445669566,0.007400411004099033,0.8909563364032099,-0.12004171820648711,0.29018185847114053,2.266351995202796
1761860585746296320,3.0352964401245117,-4.709660053253174,1.0198326110839844,-1.4994447231292725,0.29145172238349915,0.16797785460948944,-0.941721498966217,-0.21675994992256165,-0.03481440246105194,0.31336456537246704,0.42831808047564784,-0.17024582244780698,-0.012474745171281778,0.8873581392607862,-0.16877802294870203,0.300138701872517,2.2677659416355946
1761860585756340480,3.0453405380249023,-4.919125556945801,1.1012508869171143,-1.4705861806869507,0.29853492975234985,0.21760806441307068,-0.929259717464447,-0.23038917779922485,-0.06534060835838318,0.319030225276947,0.43058375848535324,-0.1851626308358494,-0.03293841647157622,0.8827386500232145,-0.21936314081488814,0.31084641270848784,2.2684485277393422
1761860585766385408,3.0553853511810303,-5.217552661895752,1.2345300912857056,-1.4227193593978882,0.3057670295238495,0.26886701583862305,-0.9133548140525818,-0.2377738654613495,-0.08837080001831055,0.3475283980369568,0.4316603199854528,-0.20091888466368882,-0.05435242148556569,0.8776939776370143,-0.27221652926026396,0.32304617239561856,2.2720654619581473
1761860585776429312,3.065429449081421,-5.409365177154541,1.3384183645248413,-1.4224151372909546,0.31322211027145386,0.3216021955013275,-0.8935680985450745,-0.25519290566444397,-0.07709535956382751,0.36146360635757446,0.4328039226553872,-0.21766065201547138,-0.07641858926048341,0.8714726901562028,-0.32742108963123967,0.33714658135720327,2.2759001071373106
1761860585786473472,3.0754735469818115,-5.571063041687012,1.4517982006072998,-1.374706506729126,0.3206814229488373,0.37465551495552063,-0.8699405789375305,-0.2465541958808899,-0.08548620343208313,0.3530339002609253,0.4327621966570254,-0.23499488318387554,-0.09903081617912124,0.864689031213449,-0.3840252100956593,0.35316949703924805,2.2828783902782703
1761860585796518400,3.0855183601379395,-5.824472427368164,1.5470746755599976,-1.3847769498825073,0.32802945375442505,0.42815276980400085,-0.8420699834823608,-0.22953400015830994,-0.05786776542663574,0.3830551505088806,0.4326174931928263,-0.25310556849278776,-0.1220761161131756,0.8566662291466086,-0.44244771956218076,0.3714665534437553,2.290779936484158
1761860585806562304,3.09556245803833,-5.916703701019287,1.6424459218978882,-1.385263204574585,0.3348987400531769,0.48155301809310913,-0.8099071383476257,-0.22602728009223938,-0.031006723642349243,0.41708487272262573,0.43148671352449275,-0.27167825663849615,-0.1457304259603966,0.8478047404429738,-0.5024258483713683,0.3920921230703048,2.3018808333735286
1761860585816606464,3.1056065559387207,-6.033938884735107,1.6873475313186646,-1.3488600254058838,0.341190904378891,0.533750057220459,-0.7737568616867065,-0.218998521566391,-0.049314022064208984,0.41435134410858154,0.4302350394124718,-0.29060390244877127,-0.16932492739199734,0.8377209250345957,-0.5630289284616458,0.41530554706623307,2.314401179322415
1761860585826651392,3.1156513690948486,-6.159736156463623,1.7317866086959839,-1.2178056240081787,0.34682679176330566,0.5843900442123413,-0.7336207628250122,-0.18970701098442078,-0.035806119441986084,0.4300929307937622,0.4273760567074081,-0.30954207494665,-0.19332183936969,0.8271396327693916,-0.6241282001988708,0.44161938371167014,2.3323473112592423
1761860585836695552,3.1256954669952393,-6.328581809997559,1.6097296476364136,-1.153899908065796,0.3516528904438019,0.6331048607826233,-0.6895785331726074,-0.15280035138130188,-0.04452759027481079,0.4497561454772949,0.42378519229458383,-0.3285474954316585,-0.21741040179432872,0.8155951711679832,-0.6855577880835225,0.4715785542057795,2.3542422127885443
1761860585846740480,3.1357405185699463,-6.67564582824707,1.621812105178833,-1.0800155401229858,0.35500016808509827,0.6805254220962524,-0.6409836411476135,-0.11217179894447327,-0.04637014865875244,0.4045029282569885,0.41881772318187166,-0.34743913408079624,-0.2424752074285119,0.8031708957018286,-0.7484794367454883,0.5057839691789408,2.382563557264709
1761860585856784384,3.145784378051758,-6.919736385345459,1.5995961427688599,-1.0666232109069824,0.35740926861763,0.7263632416725159,-0.5870732069015503,-0.09141805768013,-0.022399067878723145,0.4892033338546753,0.4131727724148602,-0.3668251022884273,-0.2681468599877223,0.7891925011770942,-0.8130158063434585,0.5468638637645452,2.4172931411397283
1761860585866828544,3.1558284759521484,-6.976995468139648,1.5402443408966064,-1.038549542427063,0.35826340317726135,0.7691863179206848,-0.5291500091552734,-0.05615463852882385,-0.020544350147247314,0.48958396911621094,0.406222818700729,-0.3857492297865278,-0.29431703589014835,0.7743113108241245,-0.8775668248603883,0.5951597227763072,2.4611769161103205
1761860585876873472,3.1658735275268555,-6.74261474609375,1.524318814277649,-0.880606472492218,0.3582732677459717,0.8071791529655457,-0.4691503942012787,-0.024792492389678955,0.028376877307891846,0.44417181611061096,0.3989052306861971,-0.4041576567506004,-0.31950177580602096,0.7585840843483697,-0.9393577299682072,0.6521888628158883,2.5133271967057875
1761860585886917376,3.175917387008667,-6.342104434967041,1.441831350326538,-0.7679204344749451,0.358131468296051,0.8389990925788879,-0.40966129302978516,0.007896333932876587,0.17262810468673706,0.42269229888916016,0.39063656435547683,-0.4212926278545483,-0.3430479156033616,0.7431243193820873,-0.9954411776929566,0.718384428120333,2.5761604526183204
1761860585896961536,3.1859614849090576,-5.879934787750244,1.2859758138656616,-0.7797691226005554,0.3567069172859192,0.8651962876319885,-0.3524138927459717,0.07465904951095581,0.3082045912742615,0.3771026134490967,0.38276641419674257,-0.436833981117652,-0.36464932291934754,0.7278027517660126,-1.0455417460523577,0.7914521086948475,2.645736361178825
1761860585907007744,3.19600772857666,-5.461176872253418,1.2017823457717896,-0.6148510575294495,0.35447660088539124,0.8862507343292236,-0.2981710731983185,0.15591463446617126,0.30544543266296387,0.2735433578491211,0.3747280949682471,-0.4505710345464684,-0.38457796512692516,0.7132071263858851,-1.0891872606502697,0.8714575731995766,2.723764261748539
1761860585917051904,3.206051826477051,-5.2885637283325195,1.1848266124725342,-0.350080281496048,0.3534122407436371,0.9026150703430176,-0.24573510885238647,0.20780602097511292,0.27429527044296265,0.23834988474845886,0.3663647129426491,-0.46376833712104987,-0.4025560506689998,0.6990310241664622,-1.1258064992655836,0.9632172452310963,2.813234328593799
1761860585927096832,3.216096878051758,-5.121634006500244,1.1578255891799927,-0.21066780388355255,0.35353416204452515,0.9150806069374084,-0.1940128058195114,0.20303013920783997,0.3148845434188843,0.27047455310821533,0.35729000592272986,-0.47667195328097306,-0.4192582119745285,0.6850913854109031,-1.1557078118988127,1.0688895517652566,2.9168900852540047
1761860585937140736,3.2261407375335693,-4.917428970336914,1.1142758131027222,-0.13696463406085968,0.3538493514060974,0.9242346882820129,-0.1434604674577713,0.1807118058204651,0.35759514570236206,0.2655003070831299,0.3481586551307032,-0.4891167354981609,-0.43478107645987646,0.6712047312807808,-1.1790263345415377,1.185619324908431,3.031229077907877
1761860585947184896,3.23618483543396,-4.473016262054443,1.030656337738037,-0.10750475525856018,0.35406768321990967,0.9302999973297119,-0.09580262005329132,0.19773590564727783,0.4002053737640381,0.20490294694900513,0.3392110463549744,-0.500555826617333,-0.4489349117723306,0.6579036748826741,-1.1952298504121277,1.3065466440520073,-3.133147664602064
1761860585957229824,3.246229887008667,-4.00894832611084,0.8202391266822815,-0.14052386581897736,0.3535250723361969,0.9339367747306824,-0.05274788662791252,0.242651104927063,0.3919453024864197,0.06318490952253342,0.3311070702740764,-0.5105240261038823,-0.46150977764803275,0.6455556843638579,-1.205272769883666,1.4226834798556856,-3.0189495951435994
1761860585967273728,3.2562737464904785,-3.6013264656066895,0.6175288558006287,0.053792085498571396,0.3532288372516632,0.9354225397109985,-0.014629299752414227,0.2943083643913269,0.3132804036140442,-0.0310097336769104,0.3229387233290618,-0.5187401196375188,-0.472857312700968,0.6348426565455545,-1.2094523468659206,1.5294040541077956,-2.911731221294557
1761860585977317888,3.266317844390869,-3.361098051071167,0.5416364669799805,0.19934067130088806,0.3545706272125244,0.9348152279853821,0.019995294511318207,0.3154274821281433,0.3026876449584961,-0.01763022318482399,0.3145379793064779,-0.526290697025414,-0.482717049430676,0.6253543243561013,-1.2077383790148315,1.6271296419904742,-2.8127086841261293
1761860585987362816,3.276362895965576,-3.226271152496338,0.4221268594264984,0.10125058889389038,0.3558785319328308,0.9330497980117798,0.05261630937457085,0.2893088161945343,0.34769660234451294,0.018123384565114975,0.3062456100282003,-0.5331455593576008,-0.49199996696264936,0.6163646928861319,-1.2027993284980978,1.7175820118948975,-2.720354540415981
1761860585997406720,3.2864067554473877,-3.0662622451782227,0.3569515645503998,0.12816324830055237,0.3565463423728943,0.9305453300476074,0.08342668414115906,0.2566585838794708,0.3177456259727478,-0.05730367451906204,0.29826265177729044,-0.5392127448222894,-0.5009620342115699,0.6077219902411796,-1.1958993054155993,1.8006466919969684,-2.6348140083535667
1761860586007450880,3.2964508533477783,-2.9753613471984863,0.38801443576812744,0.23690491914749146,0.35792768001556396,0.926895022392273,0.11293197423219681,0.21473470330238342,0.2369997501373291,-0.11683820188045502,0.2903505191181757,-0.545224646810432,-0.5091130258576402,0.5993585693253528,-1.1860536127303578,1.8764266859384466,-2.5570344237974396
1761860586017495808,3.3064959049224854,-2.86224102973938,0.3970487713813782,0.2394799292087555,0.3596716821193695,0.9222966432571411,0.14144092798233032,0.15529721975326538,0.20305442810058594,-0.09203289449214935,0.28260177281331617,-0.5512136937648096,-0.516608100569228,0.5911141284556964,-1.1739813546123212,1.9454703386982737,-2.486614585499413
1761860586027539712,3.316539764404297,-2.7164111137390137,0.3949193060398102,0.24250368773937225,0.36127543449401855,0.9170723557472229,0.16869542002677917,0.11252519488334656,0.21888333559036255,-0.062250152230262756,0.2752968873732422,-0.5570557971713581,-0.5234850013279209,0.5829784271004944,-1.1606748129122546,2.0076512350242237,-2.423838227876117
1761860586037584896,3.326584815979004,-2.483156681060791,0.31579503417015076,0.21688388288021088,0.36275535821914673,0.9114880561828613,0.19390204548835754,0.12538853287696838,0.2705492377281189,-0.04959966242313385,0.2682524916945444,-0.5622639208433955,-0.5299153783446031,0.5754038006937529,-1.1468873471237369,2.0616814869816533,-2.3686804051960024
1761860586047628800,3.3366289138793945,-2.190068006515503,0.24367660284042358,0.22597219049930573,0.3641563951969147,0.9058616757392883,0.216343492269516,0.15880805253982544,0.2990027070045471,-0.08917680382728577,0.2618254010472039,-0.5668648335143145,-0.5355707300499364,0.5685733212997701,-1.133409631913001,2.106862594512446,-2.3224066848795517
1761860586057672704,3.346672773361206,-1.815976619720459,0.2284284383058548,0.2507913410663605,0.36578696966171265,0.900445818901062,0.23536604642868042,0.16939976811408997,0.2856351137161255,-0.13513100147247314,0.2560665364396076,-0.570782857117847,-0.540268407286565,0.562802729480862,-1.1207934409568832,2.1425539833638494,-2.2855140306446464
1761860586067717888,3.356717824935913,-1.4497405290603638,0.2020474374294281,0.24163246154785156,0.36747950315475464,0.8955453038215637,0.25091275572776794,0.14196565747261047,0.28435570001602173,-0.15534701943397522,0.2510189269060863,-0.5739093094462375,-0.5441364588029088,0.5581514352397479,-1.1096551454858496,2.169880984185014,-2.256636041602972
1761860586077761792,3.3667619228363037,-1.061176061630249,0.20774391293525696,0.2805595397949219,0.3692704141139984,0.8913602828979492,0.2628994882106781,0.10103598237037659,0.273953378200531,-0.16245093941688538,0.2472343015611604,-0.5767468399154847,-0.5466377515810241,0.5544595736987439,-1.1003372258173694,2.1894928637183972,-2.236959062510382
1761860586087805696,3.3768057823181152,-0.6925601959228516,0.22075505554676056,0.30319106578826904,0.371353417634964,0.8879046440124512,0.2715175747871399,0.06974762678146362,0.2507518529891968,-0.13066366314888,0.24413663018430973,-0.5789229018052763,-0.5482764395839815,0.5519406236953945,-1.0927701239700904,2.2021282984638573,-2.2240171181180224
1761860586097850880,3.3868508338928223,-0.3864666521549225,0.20657376945018768,0.25041139125823975,0.37323418259620667,0.8853824138641357,0.2771180272102356,0.058665841817855835,0.25818753242492676,-0.10397648811340332,0.2423971576956622,-0.5809462151267798,-0.5486898080129284,0.5501678568978384,-1.08731600547067,2.2094657097128048,-2.2181973209311443
1761860586107894784,3.396894931793213,-0.12222861498594284,0.16878165304660797,0.227003276348114,0.37481793761253357,0.883802592754364,0.28000831604003906,0.05866900086402893,0.2348344922065735,-0.10454750061035156,0.2413385157805075,-0.5822153877471976,-0.5486614689570526,0.5493192380676659,-1.0839284686302748,2.212407771781348,-2.2162670434976772
1761860586117939712,3.406939744949341,-0.02915968932211399,0.13486605882644653,0.21309348940849304,0.37636423110961914,0.8827919960021973,0.28111952543258667,0.05071401596069336,0.15106725692749023,-0.07543110847473145,0.24080322718549266,-0.5831585901599252,-0.5481658706113919,0.5490482881729246,-1.081772832519556,2.2123327942059845,-2.2174877631387937
1761860586127983872,3.4169838428497314,-0.07830300182104111,0.09958770871162415,0.1476556360721588,0.3776494264602661,0.8819825053215027,0.2819358706474304,0.022100329399108887,0.10173636674880981,-0.025023579597473145,0.24033355177135202,-0.583868562909782,-0.5477822927807589,0.5488823914651474,-1.0800524369855276,2.212088675596196,-2.218493233149584
1761860586138028032,3.427027940750122,-0.1757950335741043,0.07016067951917648,0.09107580035924911,0.3784433603286743,0.8811987042427063,0.28331872820854187,-0.006876587867736816,0.0807153582572937,-0.0002377033233642578,0.2397613362023381,-0.5844362856817467,-0.5478079854810117,0.5485026577738265,-1.0783918954058989,2.213427962138591,-2.217458840108058
1761860586148072704,3.43707275390625,-0.24636347591876984,0.024126339703798294,0.05195982754230499,0.37891846895217896,0.8803547620773315,0.28530052304267883,-0.009152263402938843,0.06446945667266846,0.019020795822143555,0.23897439967947096,-0.5848720518330729,-0.548247157874908,0.5479425347709496,-1.07660964298914,2.2161724190566816,-2.2144110714170444
1761860586158116864,3.4471168518066406,-0.301082968711853,-0.03266340494155884,0.031140033155679703,0.37927207350730896,0.8794646263122559,0.2875668406486511,0.00605812668800354,0.07320261001586914,0.0258638858795166,0.2380354945746161,-0.5852138626521585,-0.5489154383614636,0.5473168255670993,-1.0747362656567174,2.2195294376605537,-2.21032033025348
1761860586168161024,3.4571609497070312,-0.26835429668426514,-0.0907227173447609,-0.008592996746301651,0.37955451011657715,0.8785952925682068,0.2898423671722412,0.022957026958465576,0.09750938415527344,0.004652231931686401,0.23695470790575918,-0.585373240230521,-0.5497811898231965,0.5467460397363226,-1.0729127579779913,2.222968972146727,-2.20554697409004
1761860586178205696,3.467205762863159,-0.16181473433971405,-0.10563648492097855,-0.03151500225067139,0.37963056564331055,0.8780943751335144,0.29125791788101196,0.027458667755126953,0.07049882411956787,-0.019712448120117188,0.23607837380877542,-0.585204001834782,-0.5506044240686296,0.546477936065973,-1.0718648888453812,2.2252237325159494,-2.201585849350232
1761860586188249856,3.47724986076355,-0.09456539154052734,-0.10310008376836777,-0.01673072949051857,0.3796989619731903,0.8778559565544128,0.2918863296508789,0.015824079513549805,0.05923205614089966,-0.006394416093826294,0.23545374521726747,-0.5849127477155158,-0.551198910670476,0.5464598378828793,-1.0713668216802985,2.2261778393043867,-2.1990571620397414
1761860586198294016,3.4872939586639404,-0.02117350324988365,-0.1282280534505844,-0.04850845783948898,0.37976574897766113,0.877834141254425,0.2918650507926941,0.003824949264526367,0.08182162046432495,-0.005152463912963867,0.23500269787568642,-0.5844896381091824,-0.551637917984568,0.5466637094906331,-1.0713213380892908,2.2260576485297072,-2.1975937946725383
1761860586208338688,3.4973387718200684,0.001832481473684311,-0.13350217044353485,-0.07961177825927734,0.37957409024238586,0.8780776262283325,0.29138168692588806,-0.010845452547073364,0.057743966579437256,-0.01376330852508545,0.234735810215384,-0.5838728722793617,-0.5520718356340996,0.5469993401466983,-1.0718298762638359,2.2255007788882932,-2.1964454934783206
1761860586218382848,3.507382869720459,0.005004339385777712,-0.12202318012714386,-0.08873479813337326,0.37918466329574585,0.8784344792366028,0.29081210494041443,-0.01143258810043335,0.005278229713439941,-0.008799225091934204,0.23456466797594527,-0.5831881973482353,-0.552537396609443,0.5473328794583464,-1.0725761420426208,2.225051545310254,-2.195196238984347
1761860586228427776,3.517427921295166,0.013027910143136978,-0.11485927551984787,-0.09515567868947983,0.3787102997303009,0.8788209557533264,0.2902619540691376,-0.003954470157623291,-0.014914214611053467,-0.006997853517532349,0.23444783281311157,-0.5825141645180739,-0.5529992992636796,0.5476341185313536,-1.0733854996294654,2.224741669381655,-2.1939156105852318
1761860586238471680,3.5274717807769775,0.05178729072213173,-0.11996668577194214,-0.11503484100103378,0.3781144917011261,0.8793335556983948,0.28948578238487244,0.0015241801738739014,-0.011261045932769775,-0.008144259452819824,0.23437983770321263,-0.5817074127998557,-0.553497398216421,0.5480175537736885,-1.0744609063210755,2.2242091032294504,-2.192657392344975
1761860586248515840,3.537515878677368,0.08113239705562592,-0.11950649321079254,-0.1255282312631607,0.377325177192688,0.8800499439239502,0.2883361279964447,0.004632800817489624,-0.02003413438796997,-0.014669805765151978,0.23462477601818751,-0.5809212171131374,-0.5538037556371902,0.5484369732999792,-1.0759673364895663,2.2232972551983847,-2.192304427233133
1761860586258560768,3.547560930252075,0.018951047211885452,-0.1166907325387001,-0.11101453751325607,0.37663716077804565,0.8807309865951538,0.2871542274951935,0.006755173206329346,-0.02047097682952881,0.00027561187744140625,0.23471442354292293,-0.5800277749577143,-0.5542065439249618,0.5489372390885193,-1.077403412847075,2.222196494215918,-2.1916798898296936
1761860586268604672,3.5576047897338867,-0.04028670862317085,-0.13513605296611786,-0.13558538258075714,0.3758969306945801,0.8811965584754944,0.2866958975791931,0.01172211766242981,-0.012345671653747559,0.016999870538711548,0.23468436005115573,-0.5793181411129978,-0.5547417745905838,0.5491588547334473,-1.0783872589146855,2.2223748281879097,-2.1899785230091786
1761860586278648832,3.5676488876342773,-0.06570418924093246,-0.09425440430641174,-0.113552525639534,0.37488406896591187,0.8817129731178284,0.28643354773521423,0.003655940294265747,-0.05975252389907837,-0.003703474998474121,0.23462847019681976,-0.5785018886852542,-0.555474879785964,0.5493020290762897,-1.0794808192796608,2.223234643676338,-2.187336622210059
1761860586288694016,3.5776939392089844,-0.1992417424917221,-0.11040966957807541,-0.11627401411533356,0.3739403486251831,0.8819281458854675,0.28700366616249084,-0.010720163583755493,-0.06442338228225708,0.006560176610946655,0.23443379073417867,-0.5779750128725473,-0.5562793513970966,0.5491255670726998,-1.0799371348379698,2.2254111526909472,-2.1837698543217052
1761860586298737664,3.587737798690796,-0.2776193618774414,-0.12177737057209015,-0.13327401876449585,0.3730939030647278,0.881753146648407,0.2886386215686798,-0.008408844470977783,-0.04853183031082153,0.03272673487663269,0.23367683384253188,-0.5774327223840288,-0.5575757934662025,0.5487037375409363,-1.07956595124509,2.2292532643787952,-2.1776463687603025
1761860586308781824,3.5977818965911865,-0.36982280015945435,-0.1568101942539215,-0.14654402434825897,0.3723648190498352,0.8812896013259888,0.290986031293869,-0.0021408498287200928,-0.05206608772277832,0.041441887617111206,0.23269831598749036,-0.5770677536600122,-0.5590043159287638,0.5480496410088738,-1.078584203886541,2.234126076517873,-2.1705258741350377
1761860586318827008,3.6078269481658936,-0.39857906103134155,-0.16274850070476532,-0.1400429755449295,0.3717019855976105,0.8806694746017456,0.2936985194683075,-0.006711751222610474,-0.03699582815170288,0.03340408205986023,0.2313023036916697,-0.5764842267591574,-0.5608165403984726,0.5474029099205622,-1.0772735382701368,2.2394992638510733,-2.1618191504155826
1761860586328870656,3.617870807647705,-0.4717560112476349,-0.14852382242679596,-0.11134813725948334,0.3713536262512207,0.8797997236251831,0.29673025012016296,-0.01272633671760559,-0.03107541799545288,0.03560611605644226,0.2296977395673568,-0.5760302544806732,-0.5626315573458615,0.546693516928671,-1.0754407508747268,2.244957960240017,-2.152983898788472
1761860586338914816,3.6279149055480957,-0.5614015460014343,-0.19195570051670074,-0.08462277799844742,0.37129607796669006,0.8785316348075867,0.3005351424217224,-0.012790828943252563,-0.04518812894821167,0.05159187316894531,0.22776638879892522,-0.5757814056600224,-0.5645735990322656,0.5457608239394937,-1.0727794765117384,2.251255928282518,-2.1432463206428576
1761860586348960000,3.6379599571228027,-0.6345433592796326,-0.18802326917648315,-0.0023039421066641808,0.37150049209594727,0.876873254776001,0.30509132146835327,-0.022287845611572266,-0.05392098426818848,0.059074997901916504,0.22549270837149207,-0.5756927567209078,-0.5666776014042502,0.5446167538274023,-1.0693188606227602,2.258355348568829,-2.1325316403019623
1761860586359003904,3.6480038166046143,-0.6054933667182922,-0.14832136034965515,0.00105954147875309,0.37204432487487793,0.8749585747718811,0.30988842248916626,-0.04791712760925293,-0.010471761226654053,0.07133713364601135,0.2229477525783276,-0.5756483858812862,-0.5688349032767214,0.5434613135971026,-1.0653502153788026,2.265298965921274,-2.1216647007317953
1761860586369048832,3.6580488681793213,-0.5282273888587952,-0.13570596277713776,-0.019313374534249306,0.372344434261322,0.873256504535675,0.31429725885391235,-0.05313056707382202,0.041645169258117676,0.04565763473510742,0.22067819099040667,-0.5755449170785257,-0.5708736153125703,0.5423583130457837,-1.0618461454450414,2.271857252732255,-2.1114918996294287
1761860586379092736,3.668092727661133,-0.5306333303451538,-0.1409299224615097,0.02702154591679573,0.37275201082229614,0.8716116547584534,0.31835347414016724,-0.02819332480430603,0.023712992668151855,0.0139218270778656,0.2184923384735612,-0.5754276427327973,-0.572765021729695,0.5413726236776449,-1.05848056788033,2.2776441166864294,-2.1021959005864375
1761860586389136896,3.6781368255615234,-0.5634240508079529,-0.13358572125434875,0.06244584545493126,0.37357422709465027,0.8696932792663574,0.32260817289352417,-0.01784607768058777,-0.011844158172607422,0.006951093673706055,0.21612249460781124,-0.5754780614147759,-0.5745686080855043,0.5403582410324949,-1.0545805631186347,2.2831169488294467,-2.0932906126185338
1761860586399181824,3.6881818771362305,-0.5655076503753662,-0.10450514405965805,0.05282580107450485,0.3744456171989441,0.8676407337188721,0.3270934522151947,-0.02469894289970398,-0.02250218391418457,0.02153933048248291,0.2137330865846695,-0.5756470350455097,-0.576348173166926,0.5392323161142942,-1.0504373509062708,2.288799165267449,-2.084405002712551
1761860586409225728,3.698225736618042,-0.5294380784034729,-0.1159527376294136,-0.010230663232505322,0.3749825060367584,0.8657887578010559,0.33135801553726196,-0.033170342445373535,0.0008648037910461426,0.03010740876197815,0.21157070208179296,-0.5757282526651523,-0.5781141623275219,0.5381067617319685,-1.0467244191778053,2.2945115763054376,-2.0756634839098544
1761860586419269888,3.7082698345184326,-0.3521483838558197,-0.1382802426815033,0.01683184690773487,0.3753150403499603,0.8643139600753784,0.33481377363204956,-0.02363044023513794,0.04285168647766113,0.03583744168281555,0.2096815776378023,-0.5755754404612307,-0.5797583986592509,0.5372400445339317,-1.0437848007551593,2.299222526677163,-2.0678521324831665
1761860586429314816,3.7183148860931396,-0.06394243240356445,-0.11582154035568237,0.11445613950490952,0.37633752822875977,0.8633508086204529,0.336148202419281,0.0035910606384277344,0.06183534860610962,0.03683769702911377,0.20836996027949775,-0.5754872276714167,-0.5804210142633897,0.5371293309438159,-1.0418728793866177,2.2998470008795913,-2.0650845860176723
1761860586439358720,3.728358745574951,0.38902926445007324,-0.2485761046409607,0.11312545090913773,0.3778657615184784,0.8634313344955444,0.3342207670211792,0.011645317077636719,0.11804431676864624,0.013633787631988525,0.20777805626415025,-0.57495050508869,-0.5801226574423526,0.538254393809909,-1.0420324951170268,2.294979368975607,-2.0679023851961054
1761860586449402880,3.738402843475342,0.9500356316566467,-0.15516385436058044,0.2681770622730255,0.3801685869693756,0.8649857044219971,0.3275236189365387,-0.008754432201385498,0.08385157585144043,0.03383505344390869,0.20841949483046057,-0.5739869593100472,-0.5781874906195137,0.5411095734139058,-1.0451219072355689,2.2819415980037117,-2.0797816405483602
1761860586459447808,3.748447895050049,1.243259310722351,-0.11924607306718826,0.2039141207933426,0.382760614156723,0.8676367998123169,0.31733399629592896,-0.05050048232078552,0.0948876142501831,0.08894658088684082,0.2103826241537548,-0.5729840646121733,-0.5747662619682506,0.5450433220667964,-1.0504294105937324,2.2630111686874934,-2.0994341447567786
1761860586469491712,3.7584917545318604,1.2282488346099854,-0.16069816052913666,0.14425531029701233,0.3845883309841156,0.8709575533866882,0.30581796169281006,-0.07808509469032288,0.11726254224777222,0.07806262373924255,0.21290781840154208,-0.5714622978598703,-0.5712616052226827,0.5493279774190498,-1.0571477423228754,2.2425929336544086,-2.120400448322643
1761860586479536896,3.7685368061065674,0.853313148021698,-0.10374706983566284,0.22612683475017548,0.38658958673477173,0.8734630942344666,0.29599133133888245,-0.06066182255744934,0.016277015209197998,0.03111138939857483,0.21485180974623783,-0.5702500931444507,-0.5681641427802451,0.5530308450120782,-1.0622703030996148,2.2242368010216147,-2.1391257542925355
1761860586489580800,3.778580904006958,0.29056426882743835,-0.08110248297452927,0.26115965843200684,0.3890239894390106,0.8741945624351501,0.29059311747550964,-0.05706900358200073,-0.052401840686798096,0.047846823930740356,0.21536492149879544,-0.5698886897457358,-0.5661478935411993,0.555267021079479,-1.0637746298447557,2.2123617775620206,-2.1509980102681614
1761860586499624704,3.7886247634887695,-0.22760392725467682,-0.1043706163764,0.24305105209350586,0.3914702236652374,0.873286247253418,0.290038526058197,-0.056646645069122314,-0.08181285858154297,0.025635361671447754,0.21438321996395904,-0.5702206343481188,-0.5655684737185593,0.5558962442276648,-1.0619071591419427,2.2084450521890475,-2.1540952436035177
1761860586509669888,3.7986698150634766,-0.5395346283912659,-0.03611858934164047,0.2623128890991211,0.3938801884651184,0.871142566204071,0.29320472478866577,-0.06946307420730591,-0.12004393339157104,-0.005942821502685547,0.21228827890641347,-0.5710925905938422,-0.5660879952378872,0.5552758822428506,-1.0575243787641275,2.2107043075901265,-2.15045507419038
1761860586519713792,3.808713912963867,-0.6656139492988586,-0.037741124629974365,0.17504943907260895,0.3958630859851837,0.8684213161468506,0.29855862259864807,-0.08751344680786133,-0.07452160120010376,0.019388824701309204,0.2096917748054388,-0.5721783033550593,-0.567354646535307,0.5538503449497448,-1.0520094166653517,2.2169778709049313,-2.142503065368243
1761860586529757696,3.8187577724456787,-0.48381853103637695,-0.04740893095731735,0.15622328221797943,0.3972870409488678,0.8660534620285034,0.30350401997566223,-0.07642516493797302,0.0006611347198486328,0.020607978105545044,0.2073080202622215,-0.5729340665504341,-0.5687693465103641,0.5525137685732051,-1.047253635018601,2.2231604221952876,-2.134299803560004
1761860586539802880,3.8288028240203857,-0.21089443564414978,-0.08542146533727646,0.16502423584461212,0.39881622791290283,0.8643016219139099,0.3064776360988617,-0.014630436897277832,0.019701123237609863,5.614757537841797e-05,0.20559149163634782,-0.5735408918191832,-0.5694643638323618,0.5518091924983497,-1.0437601624002726,2.2260127726462673,-2.130121112478
1761860586549846784,3.8388469219207764,-0.5163419842720032,-0.08540255576372147,0.33996012806892395,0.40123891830444336,0.8622231483459473,0.30915796756744385,0.04399728775024414,0.008824825286865234,-0.026672005653381348,0.2034876172432861,-0.5742044918186869,-0.5699720858937242,0.551374512122319,-1.0396424424953064,2.2272941266548725,-2.1270451423360663
1761860586559890688,3.848890781402588,-0.5954974293708801,-0.16561353206634521,0.4913022220134735,0.40504899621009827,0.8587976694107056,0.31369099020957947,-0.02560862898826599,0.037915706634521484,-0.13284382224082947,0.20020539015974348,-0.5754309708480041,-0.5707229535976795,0.5505200818692274,-1.0329181556052798,2.229763916005433,-2.1221839261677515
1761860586569935872,3.858935832977295,-0.5509268045425415,0.10103493183851242,0.777309238910675,0.4109208285808563,0.854239821434021,0.31846269965171814,-0.1672990322113037,0.1177297830581665,-0.12578988075256348,0.1964114457528039,-0.5776257805648303,-0.5705960117738342,0.5497192438469279,-1.0240869030039301,2.2301049530567325,-2.1206865398601247
1761860586579979776,3.8689799308776855,-0.19569750130176544,0.21088489890098572,0.13401785492897034,0.41442838311195374,0.8510079383850098,0.3225436508655548,-0.2886196970939636,0.2973988652229309,-0.1299319863319397,0.19429565445593905,-0.5796807871450871,-0.5702999304910674,0.5486139801548565,-1.0179016565883707,2.232155856890895,-2.1197327001424973
1761860586590023680,3.879023790359497,-0.029357794672250748,0.2492503970861435,0.15571409463882446,0.41413554549217224,0.850597083568573,0.32400020956993103,-0.21839582920074463,0.18083590269088745,-0.1357983648777008,0.19442043780098134,-0.5802970892158018,-0.5703116596507813,0.5479055714005281,-1.0171198165926698,2.234683936184129,-2.118683346567279
1761860586600068864,3.889068841934204,-0.37745699286460876,0.32549652457237244,0.3819769620895386,0.4157223701477051,0.8487191796302795,0.3268797993659973,0.019214123487472534,-0.13567614555358887,-0.13887637853622437,0.19370277909455857,-0.5819688699243116,-0.5698702804150154,0.546844779236939,-1.0135585850019901,2.237123608671009,-2.118655533640959
1761860586610113024,3.8991129398345947,-0.6186296939849854,0.26927614212036133,0.2381010204553604,0.41718754172325134,0.8458753228187561,0.33233878016471863,0.04298695921897888,-0.26613306999206543,-0.02191409468650818,0.19212461062656422,-0.5838891194499577,-0.5703006937908444,0.5449023661862856,-1.0082041442052405,2.243471194048061,-2.113991173610219
1761860586620157696,3.9091577529907227,-0.8722386360168457,0.21812790632247925,0.20678269863128662,0.4182041883468628,0.8423868417739868,0.33983734250068665,0.07352548837661743,-0.22452813386917114,0.03844326734542847,0.1899632441353576,-0.5858836362471865,-0.5715409336923705,0.542213238191198,-1.0016973109147296,2.2531797756522947,-2.1053003838286743
1761860586630201856,3.9192018508911133,-0.664426863193512,0.19803594052791595,0.11239227652549744,0.41873449087142944,0.8390626311302185,0.3473265469074249,0.06245148181915283,-0.09147340059280396,0.011972218751907349,0.18789293246811223,-0.5876606241392044,-0.5729906357120615,0.5394748636568927,-0.9955579593769525,2.2632486529767806,-2.0959636468432232
1761860586640246016,3.929245948791504,-0.5041807293891907,0.2255527526140213,0.21033358573913574,0.41927316784858704,0.8364251255989075,0.3529917001724243,0.029365718364715576,-0.0002892613410949707,-0.06646215915679932,0.18645734939576208,-0.5892524181223784,-0.5738270078973852,0.5373433252718528,-0.9907278355745098,2.270576907268452,-2.089917307807385
1761860586650290688,3.939290761947632,-0.2966059744358063,0.20812930166721344,0.23118266463279724,0.4203689992427826,0.8339834809303284,0.3574378490447998,0.04932710528373718,0.06871140003204346,-0.03286811709403992,0.18528768622405792,-0.590929068162146,-0.5740398544676624,0.5356768359223952,-0.9862879613065365,2.275461880622957,-2.086875360037649
1761860586660334848,3.9493348598480225,0.1100868210196495,0.15610085427761078,0.1798584908246994,0.42138218879699707,0.8328002095222473,0.35899966955184937,0.04141685366630554,0.1510559320449829,-0.05654004216194153,0.1850692881840187,-0.5921602229071129,-0.5734510498293781,0.535022887423013,-0.9841470356618103,2.2764256625523047,-2.088189447905627
1761860586670379008,3.959378957748413,0.6222028136253357,0.20295384526252747,0.25779563188552856,0.4224662780761719,0.8332420587539673,0.3566932678222656,0.042789459228515625,0.2561286687850952,-0.11029434204101562,0.1861766837724886,-0.5929553061916348,-0.5716210654700787,0.5357160252724487,-0.9849456396740108,2.271978815532548,-2.095901588422417
1761860586680423680,3.969423770904541,0.944338858127594,0.2187814712524414,0.2704099714756012,0.4238990247249603,0.8350251913070679,0.3507741093635559,0.059819817543029785,0.28995949029922485,-0.12585952877998352,0.18862474330495482,-0.5936337264190158,-0.5683186145556933,0.5376184767258793,-0.9881785737310427,2.262078817440094,-2.1107659186281196
1761860586690467840,3.9794678688049316,0.9408037662506104,0.18448102474212646,0.20484347641468048,0.4251299202442169,0.8374016284942627,0.34354525804519653,0.07438185811042786,0.16137778759002686,-0.04543420672416687,0.19154196746197336,-0.5940144936955503,-0.5647294964633484,0.5399436584570328,-0.9925119670772274,2.250453624078996,-2.1274411413689625
1761860586700511744,3.989511728286743,0.763485312461853,0.09273236244916916,0.1377698928117752,0.42604219913482666,0.8396514058113098,0.33685874938964844,0.08611911535263062,-0.044119060039520264,0.07670024037361145,0.19416488118719274,-0.5941230550114156,-0.5616468421588733,0.5420984486011005,-0.9966411154327629,2.239822271605417,-2.142147821487681
1761860586710556672,3.99955677986145,0.5064268708229065,-0.015095831826329231,0.04321036860346794,0.426711767911911,0.8413686752319336,0.331686794757843,0.09976229071617126,-0.17286574840545654,0.16451385617256165,0.19598375497239823,-0.5939603642163893,-0.5595127206164083,0.5438263339144447,-0.9998106587857388,2.231547199768703,-2.1527572975259006
1761860586720600832,4.009600877761841,0.46913981437683105,-0.15064899623394012,-0.061607569456100464,0.42675912380218506,0.8430725932121277,0.32726961374282837,0.10558947920799255,-0.16576546430587769,0.1931772232055664,0.1972330963522768,-0.5931610051506266,-0.5583859119150594,0.5454029273930329,-1.002971145918668,2.22500832984867,-2.159449256575503
1761860586730646016,4.019645929336548,0.41374021768569946,-0.23156648874282837,-0.002665421459823847,0.4270849823951721,0.8446856737136841,0.32265225052833557,0.1046837866306305,-0.11234015226364136,0.16016635298728943,0.19805999919306372,-0.5920245467528181,-0.5575240451759662,0.5472166752970086,-1.0059776527136766,2.217792566688236,-2.165478117004267
1761860586740689664,4.029689788818359,0.34238195419311523,-0.31100890040397644,-0.09414544701576233,0.42759954929351807,0.8460680246353149,0.3183203637599945,0.09295406937599182,-0.05497598648071289,0.169884592294693,0.1984631826792999,-0.5907252070091502,-0.5569595249099858,0.5490467231874417,-1.0085654890629068,2.210726744602154,-2.1703877509972496
1761860586750733824,4.03973388671875,0.20583288371562958,-0.2961505949497223,-0.0679900124669075,0.4277600944042206,0.8474475145339966,0.31441017985343933,0.09474655985832214,-0.08966565132141113,0.1640748679637909,0.1986261801895128,-0.5891581232787704,-0.5568642505824777,0.5507653300146674,-1.0111586200834117,2.2046379862560603,-2.1734066075171117
1761860586760779008,4.049778938293457,0.2941913306713104,-0.31960755586624146,-0.020837057381868362,0.4284670948982239,0.8484098315238953,0.31083300709724426,0.1087644100189209,-0.04437828063964844,0.1195412278175354,0.19872342363937556,-0.5880480816583386,-0.5564314477027378,0.5523519606947374,-1.0129740137288854,2.1984017857795264,-2.1774458212250525
1761860586770822656,4.0598227977752686,0.2966015040874481,-0.35807451605796814,-0.12695789337158203,0.42885711789131165,0.8495935201644897,0.30703866481781006,0.10845065116882324,-0.037184953689575195,0.05700555443763733,0.19885371804084911,-0.5866706033948921,-0.5561806652415197,0.5540198469132457,-1.0152141375432846,2.1921445010387113,-2.1810011199070023
1761860586780866816,4.069866895675659,0.49797555804252625,-0.2786896228790283,0.0019084685482084751,0.42918717861175537,0.8511824607849121,0.30213674902915955,0.08816203474998474,-0.02079927921295166,-0.03031674027442932,0.19946159503044666,-0.5852299412314332,-0.5554946416550469,0.5560095406941252,-1.0182340129609488,2.184184670676113,-2.186854142055142
1761860586790912000,4.079911947250366,0.38548630475997925,-0.2548127770423889,0.07268837094306946,0.430374413728714,0.8523628115653992,0.2970781624317169,0.06341522932052612,0.048546552658081055,-0.08495047688484192,0.20003608571661977,-0.5842528403798752,-0.554245167409784,0.5580738700428566,-1.0204869875015554,2.174967898642541,-2.1948971495274514
1761860586800955648,4.089955806732178,0.2410581111907959,-0.18090537190437317,0.08333390951156616,0.4317074716091156,0.8529293537139893,0.29349613189697266,0.03075587749481201,0.03244650363922119,-0.060280829668045044,0.20013223799552626,-0.5835782401386141,-0.5533394135970557,0.559641812188807,-1.0215713924106287,2.1678701264705036,-2.2007395867814665
1761860586810999808,4.099999904632568,0.0699622631072998,-0.07701492309570312,0.07328341156244278,0.4327748715877533,0.8530572056770325,0.29154667258262634,-0.003346771001815796,-0.04066401720046997,-0.04711616039276123,0.20005062383875916,-0.5833026753574767,-0.5527488834538077,0.5605412162465959,-1.0218162722683537,2.16363051824296,-2.2042891858570752
1761860586821044992,4.110044956207275,-0.1313234120607376,-0.08980851620435715,0.0198640339076519,0.4333951473236084,0.8527485728263855,0.2915271520614624,0.004440486431121826,-0.026607394218444824,-0.008736073970794678,0.19968149483005332,-0.5833319889961894,-0.5527091132379311,0.5606813328752156,-1.0212251262878094,2.162936000189452,-2.2044898314572032
1761860586831088896,4.120088815689087,-0.23373021185398102,-0.10069844871759415,-0.0026343516074121,0.4337245225906372,0.8521727323532104,0.29271936416625977,0.03963363170623779,-0.05119311809539795,0.023976802825927734,0.19895200906849114,-0.5833677102368486,-0.5532104501099852,0.5604091364922171,-1.0201236645411964,2.164475217130654,-2.2019234543067423
1761860586841133824,4.130133867263794,-0.20091424882411957,-0.11716021597385406,0.013281231746077538,0.43408656120300293,0.8514807820320129,0.29419296979904175,0.046382248401641846,-0.06347101926803589,0.034511834383010864,0.19794911342496166,-0.5832821623545745,-0.5539660637161715,0.5601069071243777,-1.0188027490927913,2.1664182844646502,-2.1982884970238152
1761860586851177728,4.1401777267456055,-0.028873499482870102,-0.14834477007389069,0.013429038226604462,0.4346168339252472,0.851044237613678,0.29467248916625977,0.04423445463180542,-0.010117173194885254,0.029775112867355347,0.19710186691036036,-0.5830073413547473,-0.5544715375385654,0.5601915553490291,-1.017970728926687,2.1666076956240277,-2.196250183378786
1761860586861221888,4.150221824645996,0.18505632877349854,-0.16543422639369965,-0.020486319437623024,0.43508240580558777,0.8512805700302124,0.2933000326156616,0.03685674071311951,0.013847112655639648,0.006230026483535767,0.19681324840833814,-0.5824015732147343,-0.5544893357257296,0.5609051679250068,-1.0184209880698838,2.163944795021518,-2.1972198671396406
1761860586871266816,4.160266876220703,0.3178093135356903,-0.14773619174957275,-0.04749583452939987,0.4352462589740753,0.852198600769043,0.2903754711151123,0.014353901147842407,-0.019389331340789795,-0.01661759614944458,0.1971509983882516,-0.5815172698838994,-0.5540987249773525,0.5620886227079759,-1.0201730907874376,2.1591349487436444,-2.200703363775632
1761860586881310720,4.170310735702515,0.30510252714157104,-0.12621591985225677,-0.05373677238821983,0.4352262318134308,0.8533360362052917,0.28704652190208435,-0.005538731813430786,-0.04935044050216675,-0.014585614204406738,0.1978083529054402,-0.5806494512364262,-0.5535065256881749,0.5633370208245668,-1.0223509198695828,2.153844690568276,-2.205188892833732
1761860586891354880,4.180354833602905,0.21155524253845215,-0.10744037479162216,-0.07592196762561798,0.43501177430152893,0.8543752431869507,0.28426647186279297,-0.009383141994476318,-0.07272863388061523,-0.013606101274490356,0.19840617210925265,-0.5798477381762905,-0.5530911645799297,0.5643595230260885,-1.0243474546153195,2.1496059542395063,-2.2086717941185583
1761860586901399296,4.190399408340454,0.025466471910476685,-0.0498238168656826,-0.08970791101455688,0.43453630805015564,0.8550829291343689,0.28286248445510864,-0.006039053201675415,-0.10276371240615845,-0.026621609926223755,0.1987715339235061,-0.5792685828471703,-0.553063422254789,0.564852688647872,-1.0257107664872753,2.147840831100576,-2.2097887333967905
1761860586911443200,4.200443267822266,-0.13494211435317993,-0.016639765352010727,-0.09687501192092896,0.43383216857910156,0.8553210496902466,0.2832237482070923,0.004125624895095825,-0.11308765411376953,-0.0341697633266449,0.19878892948081017,-0.5789917972181281,-0.5535163699741017,0.5646867828987109,-1.026170242338434,2.1491666504271083,-2.2079100242867784
1761860586921487360,4.210487365722656,-0.17431621253490448,-0.021574536338448524,-0.09676866233348846,0.433062344789505,0.8552688360214233,0.2845565676689148,0.021023988723754883,-0.09332108497619629,-0.029841512441635132,0.19855609846255037,-0.5788622151193838,-0.5542533906874704,0.5641784136536894,-1.0260694355435411,2.152132546538324,-2.2043156128217958
1761860586931532288,4.220532417297363,-0.12737692892551422,-0.012631375342607498,-0.069043830037117,0.4324418306350708,0.8551684617996216,0.2857983410358429,0.023902684450149536,-0.04008990526199341,-0.010621368885040283,0.19833001799371597,-0.5787949459995393,-0.5548833911704835,0.5637073201005237,-1.0258757893745434,2.154792013422327,-2.2011686836343674
1761860586941576192,4.230576276779175,-0.01813623309135437,-0.013535218313336372,-0.06723100692033768,0.4322529137134552,0.8550440073013306,0.2864559590816498,0.018354356288909912,0.012753784656524658,0.013302892446517944,0.1981259291139418,-0.5787667008989021,-0.5552090482032263,0.5634874388209806,-1.0256357423544182,2.156050890679863,-2.199541166816518
1761860586951621376,4.240621328353882,0.08872683346271515,-0.030101144686341286,-0.05323237180709839,0.43217411637306213,0.855263352394104,0.2859204411506653,0.013184219598770142,0.028968334197998047,0.03045526146888733,0.1982154157646125,-0.5785630309021245,-0.5551801850035972,0.5636936824988724,-1.026058833041299,2.155273449624144,-2.200032898551413
1761860586961665280,4.2506654262542725,0.2175886482000351,-0.03322340175509453,-0.018540792167186737,0.43224260210990906,0.8557016849517822,0.28450196981430054,0.01027756929397583,0.029872775077819824,0.039091259241104126,0.1984776908886271,-0.5782292137308677,-0.5548891391362589,0.5642302581436685,-1.0269053118192002,2.1529142659319938,-2.2021002916339545
1761860586971709184,4.260709285736084,0.3069467544555664,-0.052468735724687576,0.0033133747056126595,0.4326101243495941,0.8563173413276672,0.28208038210868835,0.0030588507652282715,0.017080605030059814,0.042794495820999146,0.19891982002734587,-0.5778175650056491,-0.5542265409768389,0.5651467329138727,-1.0280962888567013,2.1486063895610132,-2.206232324333125
1761860586981754368,4.270754337310791,0.2771627902984619,-0.04918722063302994,0.020770573988556862,0.43338218331336975,0.8568356037139893,0.27930742502212524,-0.011461406946182251,0.012839078903198242,0.04794788360595703,0.19932542721668833,-0.5774762319373992,-0.5533307470018396,0.5662293329678676,-1.0291005581239805,2.1432833416559656,-2.211476173560903
1761860586991798528,4.280798435211182,0.13886244595050812,-0.05419636145234108,0.013841293752193451,0.4343498945236206,0.8570189476013184,0.2772335112094879,-0.02413266897201538,-0.008935630321502686,0.0538364052772522,0.19940789172429557,-0.577258202678597,-0.5526207795375023,0.5671151805126154,-1.0294562867157242,2.1388829114833117,-2.215565656008204
1761860587001842176,4.290842294692993,-0.046841613948345184,-0.04246516898274422,0.022129405289888382,0.4353702664375305,0.8567056655883789,0.2766013741493225,-0.026144832372665405,-0.04432767629623413,0.049845099449157715,0.19908041167839807,-0.5773162168659088,-0.5522740975988765,0.5675089057567287,-1.0288485597238093,2.1367855446064556,-2.2172992142024555
1761860587011887360,4.3008873462677,-0.17545577883720398,-0.030661774799227715,0.01384591031819582,0.43604353070259094,0.8560619354248047,0.2775323987007141,-0.021080732345581055,-0.05636394023895264,0.03530338406562805,0.19844673368895444,-0.5775471785978603,-0.5524540330759583,0.5673206882886993,-1.0276018394153965,2.1376074151902937,-2.215998460618142
1761860587021931520,4.310931444168091,-0.19475354254245758,-0.011862820014357567,-0.0008866079151630402,0.4362001121044159,0.8554236888885498,0.2792488634586334,-0.015393257141113281,-0.044937849044799805,0.009462714195251465,0.19775831255800336,-0.5777406561213518,-0.5530281762305628,0.5668044570567521,-1.0263683631168257,2.1402408881241226,-2.212719247932522
1761860587031975168,4.320975303649902,-0.17428980767726898,-0.0021593268029391766,0.006302062422037125,0.43612515926361084,0.8548526167869568,0.28110837936401367,-0.00932157039642334,-0.017740190029144287,0.00023317337036132812,0.19716787330387167,-0.5779438100242442,-0.553656160196796,0.5661896133107515,-1.0252667685584387,2.1433370644323024,-2.2091444220386784
1761860587042020352,4.331020355224609,-0.13665981590747833,0.008639991283416748,0.0279657244682312,0.43613871932029724,0.854292631149292,0.28278473019599915,-0.002331376075744629,0.011613130569458008,-0.0003750324249267578,0.19661956690574653,-0.5781639774438857,-0.5541829850554448,0.5656398461288487,-1.024188498333504,2.1460336431557026,-2.2060707897656453
1761860587052064512,4.341064453125,-0.09355708211660385,0.004995721857994795,0.03877735882997513,0.43625056743621826,0.8537760972976685,0.2841688096523285,-0.0010851621627807617,0.025084376335144043,0.004542708396911621,0.19615788653547234,-0.5784025066897458,-0.5545583313656799,0.5651881921739501,-1.0231954685091464,2.1481473668893836,-2.2037511410473987
1761860587062109184,4.351109266281128,-0.08123444765806198,0.001482013612985611,0.041211310774087906,0.4362523555755615,0.8533665537834167,0.2853929400444031,-0.006656467914581299,0.024532437324523926,0.013801425695419312,0.19585695483170093,-0.5786561492644455,-0.5548455051263425,0.5647508176464868,-1.0224094434158302,2.150113054427943,-2.201853516815319
1761860587072153344,4.3611533641815186,-0.09720941632986069,-0.0034179366193711758,0.0457642525434494,0.43611589074134827,0.8528871536254883,0.2870301604270935,-0.012776106595993042,0.028200984001159668,0.020297139883041382,0.19553995210244213,-0.5789895317571951,-0.5552352663575812,0.5641356257709028,-1.0214905141641648,2.1528803545828707,-2.199294602665138
1761860587082197504,4.371197462081909,-0.11288774758577347,-0.010370617732405663,0.03727160766720772,0.436103492975235,0.8520910739898682,0.2894032895565033,-0.015952765941619873,0.020467400550842285,0.012034028768539429,0.19499435434728443,-0.5795101298984653,-0.5557604344723417,0.5632720974953974,-1.0199676650554694,2.1566808613291304,-2.1957466626910587
1761860587092242176,4.381242275238037,-0.1182984933257103,-0.00035366974771022797,0.030202247202396393,0.4363696575164795,0.8512002825737,0.29161497950553894,-0.015868008136749268,0.0016285181045532227,-0.0042920708656311035,0.19435552391909944,-0.580049279300191,-0.5561926983057744,0.5625107388962587,-1.0182680382052165,2.1599116284277375,-2.192670656854999
1761860587102286336,4.391286373138428,-0.1314501166343689,-0.0022385218180716038,0.0378231480717659,0.4367578327655792,0.850527286529541,0.29299432039260864,-0.012639850378036499,-0.010149657726287842,-0.011835873126983643,0.1937335919671557,-0.58031030496967,-0.5565403043283915,0.5621121339993211,-1.016987115952943,2.1616821290771315,-2.190506650586844
1761860587112330496,4.401330471038818,-0.12245102226734161,-0.02748049423098564,0.016020115464925766,0.43699243664741516,0.850121259689331,0.293821781873703,-0.0059774816036224365,-0.017723917961120605,-0.005186587572097778,0.19322817535570877,-0.5803370984336037,-0.5568839536501936,0.5619180481610921,-1.0162154994469308,2.1627388415959743,-2.188746050279189
1761860587122375168,4.411375284194946,-0.09124676138162613,-0.0331445075571537,0.0020409165881574154,0.4369025230407715,0.8500683307647705,0.2941088378429413,-0.005643397569656372,-0.021836519241333008,0.003498554229736328,0.19295631949173178,-0.5801383346176711,-0.5572198292683082,0.561883838861202,-1.0161150557897642,2.163286430102137,-2.187377342185539
1761860587132419328,4.421419382095337,-0.07371064275503159,-0.01754770241677761,-0.0037916721776127815,0.4365519881248474,0.8501842617988586,0.2942943274974823,-0.011426866054534912,-0.019175350666046143,-0.0023174285888671875,0.19286368966464185,-0.5799004030032286,-0.557550614317053,0.5618331354524964,-1.016335218748042,2.1639504955847007,-2.1860793843659634
1761860587142464512,4.431464433670044,-0.062026794999837875,-0.003882525023072958,-0.0067800055257976055,0.4359222948551178,0.8503430485725403,0.2947692573070526,-0.012765467166900635,-0.020249485969543457,-0.008163273334503174,0.1928873795841249,-0.5797254225538946,-0.5579453941284885,0.5616137458931219,-1.0166368363163947,2.165367734081828,-2.184332989479173
1761860587152508160,4.4415082931518555,-0.04142111912369728,-0.0019341562874615192,-0.010463157668709755,0.4350713789463043,0.8505624532699585,0.29539191722869873,-0.006635129451751709,-0.017875075340270996,-0.01476752758026123,0.19302866614380598,-0.5795891406366246,-0.5583658215414345,0.5612877874830738,-1.017053962372062,2.1672549554423997,-2.1823724361865846
1761860587162552320,4.451552391052246,-0.018252480775117874,0.0024595935828983784,-0.022220302373170853,0.43413016200065613,0.8509437441825867,0.29567819833755493,-0.005068331956863403,-0.007697403430938721,-0.015694648027420044,0.19337685520046094,-0.5794473608776732,-0.558641073536576,0.5610403228946038,-1.01777943386057,2.1687124103293436,-2.181141324629555
1761860587172597504,4.461597442626953,-0.028125617653131485,0.021071361377835274,-0.010526895523071289,0.4334562420845032,0.8513062596321106,0.2956233024597168,-0.0038603246212005615,0.0058103203773498535,-0.011291056871414185,0.19374892297020638,-0.5793506897143115,-0.5587167656139118,0.560936391621207,-1.0184700041648085,2.169349003527901,-2.1808614075703336
1761860587182641152,4.471641302108765,-0.06005914881825447,0.025196697562932968,-0.01608296111226082,0.4332215189933777,0.8514164090156555,0.2956509292125702,0.00348508358001709,-0.0010134577751159668,-0.0035519301891326904,0.19389280776325246,-0.5793523712344022,-0.5587273915490986,0.5608745194606336,-1.0186799878684694,2.1696446882607843,-2.1807851846408486
1761860587192685312,4.481685400009155,-0.11071460694074631,0.025351693853735924,-0.005971736274659634,0.43335026502609253,0.8510918617248535,0.29639536142349243,0.008162766695022583,-0.01626831293106079,0.008276909589767456,0.19368476979297095,-0.5795668712156073,-0.5588380148965997,0.5606144223416363,-1.0180614565710908,2.1706776400305214,-2.179884570743536
1761860587202730496,4.491730451583862,-0.14752668142318726,0.017582986503839493,-0.0045574200339615345,0.4335651695728302,0.8504509925842285,0.2979170083999634,0.009565353393554688,-0.017839789390563965,0.015452772378921509,0.19324969526170588,-0.5799642092010979,-0.559106442858949,0.5600858372180432,-1.0168420525843103,2.1728345053152127,-2.177899700111485
1761860587212774400,4.501774311065674,-0.12140799313783646,0.01064225658774376,-0.010166037827730179,0.43349742889404297,0.8500601053237915,0.2991284728050232,0.010685920715332031,-0.006203293800354004,0.013142704963684082,0.19297513084784826,-0.5801958070418952,-0.5594077725430926,0.559639513065206,-1.0160994129018173,2.1748031214684,-2.1760000642178006
1761860587222819328,4.511819362640381,-0.07005375623703003,-0.0020993389189243317,-0.006092288997024298,0.4334436357021332,0.8498697876930237,0.29974639415740967,0.011624693870544434,0.011992335319519043,0.014126867055892944,0.19281273393874887,-0.5802790769547916,-0.5595975265823742,0.5594193640821554,-1.0157381357991249,2.175826180488218,-2.1749065522632947
1761860587232863488,4.5218634605407715,-0.0035658131819218397,-0.020411500707268715,-0.012190395034849644,0.43361663818359375,0.8498716950416565,0.29949039220809937,0.012992799282073975,0.01682734489440918,0.014215052127838135,0.1927536423127312,-0.5802174585244078,-0.5595470438118902,0.5595540769960671,-1.0157418184500175,2.1752399172573376,-2.175276220955643
1761860587242907392,4.531907320022583,0.035116732120513916,-0.016476813703775406,-0.01470885705202818,0.43360641598701477,0.850191056728363,0.2985984683036804,0.008074551820755005,-0.00042897462844848633,0.006028085947036743,0.19296668774951922,-0.5800181472184219,-0.5593551513235769,0.5598792399077044,-1.0163480454078226,2.173856980900367,-2.176565086866752
1761860587252952320,4.54195237159729,0.030009856447577477,-0.008903848938643932,0.004154578782618046,0.43344783782958984,0.8505784869194031,0.2977234721183777,-2.193450927734375e-05,-0.007026851177215576,0.00858151912689209,0.19329432260571539,-0.5798438289576003,-0.559144768509423,0.5601567444856667,-1.0170843812506718,2.172657559632828,-2.177893492598206
1761860587262996480,4.551996469497681,0.008604001253843307,-0.010565495118498802,-0.0012123123742640018,0.4336324632167816,0.8506255745887756,0.29731953144073486,9.85860824584961e-05,0.00974118709564209,0.008603900671005249,0.1934107441526714,-0.5798980658196434,-0.5589078561922308,0.5602967862137384,-1.0171739904081063,2.171825427862943,-2.1790128517182143
1761860587273040384,4.562040328979492,-0.0445239320397377,0.002584928646683693,0.00035575684159994125,0.43405091762542725,0.850244402885437,0.29779914021492004,0.001007676124572754,0.011190533638000488,0.0038366317749023438,0.19322515046510558,-0.5802055451207131,-0.5588032677237129,0.5601468511948531,-1.0164493955675722,2.1721273630259716,-2.1790712705806063
1761860587283085312,4.572085380554199,-0.10212144255638123,0.005962083116173744,0.006432291120290756,0.4345210790634155,0.8495528101921082,0.2990843653678894,0.0020176172256469727,0.0021012425422668457,0.01346135139465332,0.19283275405829137,-0.580707056730623,-0.5588573172738766,0.5597082693510531,-1.0151369584932826,2.1736321807641263,-2.1780199460882255
1761860587293129472,4.58212947845459,-0.13178586959838867,0.009524061344563961,0.005759843625128269,0.43486639857292175,0.8488624691963196,0.30053868889808655,-0.0011201202869415283,-0.00030612945556640625,0.013227760791778564,0.19242462749765457,-0.5811885767106623,-0.5590073172940377,0.5591988325469865,-1.0138296481900735,2.175528046932307,-2.176513299065666
1761860587303174144,4.592174291610718,-0.11565689742565155,0.009838514029979706,-0.0031949467957019806,0.4348990023136139,0.8483613729476929,0.30190345644950867,-0.005699813365936279,0.008251667022705078,0.010092943906784058,0.19197476420913767,-0.5813821669537367,-0.5594162227735529,0.5587431319359244,-1.0128823878451885,2.177613765767979,-2.1741567682287544
1761860587313218304,4.602218389511108,-0.0691240206360817,0.012523513287305832,0.008519233204424381,0.4349002242088318,0.8480055332183838,0.3029002249240875,-0.005395829677581787,0.013765096664428711,0.004060864448547363,0.19159244026284203,-0.5814548176264707,-0.5597860355617842,0.5584284038874325,-1.012210663576188,2.1791573775604505,-2.172192734733552
1761860587323262464,4.612262487411499,-0.014682279899716377,0.015726430341601372,0.024651508778333664,0.4351503551006317,0.8477264046669006,0.303321897983551,-0.0019075572490692139,0.017965734004974365,0.00121307373046875,0.191448905536643,-0.5816686728256065,-0.5597521817845545,0.558288813114572,-1.0116842396250472,2.1795402291182393,-2.1720400362414787
1761860587333307392,4.622307300567627,0.040463533252477646,0.005060470197349787,0.019017858430743217,0.43530380725860596,0.8476077318191528,0.30343297123908997,0.0005481839179992676,0.021258115768432617,-0.009930163621902466,0.1915153917175751,-0.5818874710296442,-0.5595743539838258,0.5582161903847491,-1.0114605346411139,2.179546562360588,-2.172588287072757
1761860587343351296,4.632351398468018,0.07125666737556458,-0.00827590748667717,0.011245155707001686,0.43520209193229675,0.8478495478630066,0.30290356278419495,-0.002829045057296753,0.023290038108825684,-0.007371306419372559,0.1917995567098886,-0.5818630760831714,-0.5593631531170179,0.5583558407843987,-1.011916363400761,2.1788371715749344,-2.173672320494633
1761860587353395456,4.642395496368408,0.0375295914709568,-0.004366654437035322,0.010775640606880188,0.43517136573791504,0.8481024503707886,0.30223897099494934,-0.012731760740280151,0.030269861221313477,0.018485575914382935,0.1920715958307495,-0.5818117093466445,-0.5591195067882323,0.5585598542533289,-1.0123935020021964,2.1778407794805887,-2.1749688549715316
1761860587363440384,4.652440309524536,-0.022561341524124146,-0.003070061095058918,-0.003971435595303774,0.4351692199707031,0.8480551838874817,0.3023742437362671,-0.015750885009765625,0.02038353681564331,0.02166140079498291,0.1921646107336905,-0.5819652374266091,-0.55902020394521,0.558467234007182,-1.012304335445043,2.178052758253498,-2.1752155665186903
1761860587373484288,4.662484407424927,-0.07959320396184921,0.006007856223732233,-0.011970506981015205,0.43501901626586914,0.8478695154190063,0.30311065912246704,-0.010366857051849365,0.002686023712158203,0.011220484972000122,0.19214905073821398,-0.5821870748783124,-0.5591185393235633,0.5581429322733227,-1.011954049937399,2.179355033088565,-2.174352418842573
1761860587383529472,4.672529458999634,-0.08527868986129761,0.0025009061209857464,-0.01294620055705309,0.43460413813591003,0.8477418422698975,0.3040611147880554,-0.0007051825523376465,-0.00332033634185791,0.003876596689224243,0.1921738919282479,-0.5823732147499352,-0.5593496138350206,0.5577084474996227,-1.0117133484470338,2.181272396718903,-2.1728605085349932
1761860587393573376,4.682573318481445,-0.0480508878827095,0.007824032567441463,-0.0038927842397242785,0.4342018961906433,0.847732663154602,0.30466121435165405,0.006380438804626465,0.00010687112808227539,-0.00435301661491394,0.1922997032535248,-0.582508841223188,-0.5594765974378454,0.5573960502612697,-1.0116959694989143,2.182634174000789,-2.171970522474645
1761860587403617280,4.692617416381836,0.006684261839836836,0.0030420601833611727,0.0001756385900080204,0.43393442034721375,0.8478485345840454,0.3047197759151459,0.00474056601524353,0.01456308364868164,-0.004945605993270874,0.1925387431515225,-0.5825991268584022,-0.559408747208741,0.557287243999356,-1.0119144734050947,2.183014308817669,-2.1721365981616074
1761860587413662464,4.702662467956543,0.025583116337656975,-8.3159189671278e-05,-0.003974365070462227,0.4337831437587738,0.848134458065033,0.3041383624076843,-0.0009065866470336914,0.01914459466934204,-4.589557647705078e-05,0.19289455774896663,-0.5825900096834496,-0.5591583483683268,0.5574249061145026,-1.0124539708533717,2.1822802317160854,-2.1733838959453076
1761860587423706368,4.7127063274383545,0.019069524481892586,0.0016705654561519623,-0.006324604619294405,0.43347862362861633,0.8485042452812195,0.3035401403903961,-0.005210220813751221,0.006247222423553467,0.0006742179393768311,0.19334869364543208,-0.5825707163568536,-0.5589109365462154,0.5575357557039563,-1.0131523335789574,2.181685029463892,-2.1746187527776506
1761860587433751296,4.7227513790130615,-0.02621433325111866,0.013783954083919525,0.0027945912443101406,0.4327772259712219,0.8487362861633301,0.30389243364334106,-0.007560551166534424,-0.005199909210205078,0.0011764764785766602,0.19377484933046515,-0.5826974945629673,-0.5589363585442086,0.5572298331756078,-1.0135909504192049,2.18299150258992,-2.1742159044934573
1761860587443795456,4.732795476913452,-0.045612532645463943,0.023126056417822838,0.0001630326732993126,0.4321436583995819,0.8487566709518433,0.30473557114601135,-0.00854441523551941,-0.0017871856689453125,0.004147976636886597,0.19405974912731436,-0.5829530163717092,-0.5590470227298727,0.5567521530003862,-1.0136295911244078,2.184984986222754,-2.173183068127736
1761860587453839360,4.742839336395264,-0.032561179250478745,0.021845608949661255,-0.019719062373042107,0.43174296617507935,0.848708987236023,0.3054358959197998,-0.006862014532089233,0.00012218952178955078,0.0014488697052001953,0.1942651681800957,-0.5832171198414631,-0.5590847269194027,0.5563659970065005,-1.0135394047277577,2.1865037554119335,-2.172524210796179
1761860587463884288,4.752884387969971,-0.004888405092060566,0.017709320411086082,-0.017376545816659927,0.43160197138786316,0.848665714263916,0.30575546622276306,-0.006293743848800659,0.0020575523376464844,0.01023876667022705,0.19435449466613958,-0.5833609447337263,-0.559077577306736,0.5561911954652793,-1.0134575144512776,2.1871509671684355,-2.1723114768036758
1761860587473928448,4.762928485870361,0.006291278172284365,0.007145092356950045,-0.017351511865854263,0.4316563606262207,0.8486891388893127,0.30561375617980957,-0.0030521750450134277,0.0027208924293518066,0.013569623231887817,0.19443954642909744,-0.5834170526001462,-0.5589556568297104,0.5562251852966871,-1.0135018061432282,2.1868729198081907,-2.172833925706696
1761860587483972352,4.772972345352173,0.038130536675453186,0.0006820335984230042,-0.034098800271749496,0.43147167563438416,0.8489406704902649,0.3051753342151642,0.0005351603031158447,0.005826175212860107,0.016434192657470703,0.19477136645881038,-0.5834272367346229,-0.5587488995538604,0.556306085960713,-1.0139775956191994,2.186397781453737,-2.1738273737447655
1761860587494017280,4.78301739692688,0.09300310164690018,-0.0031963284127414227,-0.039212070405483246,0.4310368597507477,0.8494281768798828,0.30443274974823,0.004845708608627319,0.008253157138824463,0.01385033130645752,0.1953447962684932,-0.5833754908984309,-0.5584706022443127,0.5564387955280335,-1.0149006932069031,2.1857246968649493,-2.1752523916787787
1761860587504061440,4.7930614948272705,0.17575401067733765,-0.0168595090508461,-0.044194843620061874,0.4305940270423889,0.8500781655311584,0.3032423257827759,0.012307584285736084,0.019321858882904053,0.013926863670349121,0.1960212666401025,-0.5832162805993063,-0.5581038792293308,0.5567355671949658,-1.016133660431293,2.1843635010100746,-2.17729571195847
1761860587514106368,4.803106307983398,0.2754307985305786,-0.020618028938770294,-0.03371637314558029,0.4302428364753723,0.8509234189987183,0.3013647496700287,0.01726698875427246,0.02587723731994629,0.016063839197158813,0.19687992774259225,-0.5829843629455227,-0.5575048071913271,0.5572755312060672,-1.0177407117298753,2.181826058136067,-2.1806384212580143
1761860587524150272,4.813150405883789,0.3358689844608307,-0.02982178144156933,-0.021753184497356415,0.42995619773864746,0.8519346714019775,0.29890626668930054,0.01947617530822754,0.03287672996520996,0.018644332885742188,0.19790351811962917,-0.5826938624445934,-0.5567054896861273,0.5580152806875848,-1.019668865864651,2.1782946786267727,-2.185102468731357
1761860587534194176,4.823194265365601,0.34581536054611206,-0.02645527757704258,-0.006667176261544228,0.42984190583229065,0.8529937267303467,0.2960361838340759,0.017179518938064575,0.02630913257598877,0.01219126582145691,0.19896958670545334,-0.5823703757007218,-0.5557542966148905,0.5589212094431616,-1.0216946367484523,2.173904486818196,-2.190424229185129
1761860587544239360,4.833239316940308,0.23602263629436493,-0.012853548862040043,0.0050028846599161625,0.42974457144737244,0.8537857532501221,0.2938869893550873,0.012027889490127563,0.00652003288269043,-0.003802180290222168,0.1998986370767317,-0.5822502651235545,-0.5549127218083072,0.559550771155492,-1.0232140682289934,2.1706107181230716,-2.1948701766000025
1761860587554283264,4.843283414840698,0.03734017536044121,-0.003499195910990238,0.016613734886050224,0.42977410554885864,0.85397869348526,0.29328233003616333,0.0028583109378814697,-0.027288079261779785,-0.019066601991653442,0.20031880998078988,-0.582410750726219,-0.5544717200188768,0.5596705990670884,-1.0235847833955822,2.169619410473995,-2.1968304444670363
1761860587564327168,4.85332727432251,-0.11888221651315689,-0.017184346914291382,0.0007003694772720337,0.42985641956329346,0.853567898273468,0.2943557798862457,-0.009034305810928345,-0.05181008577346802,0.00381624698638916,0.200139882864023,-0.5827757119971442,-0.5545722283381729,0.5592550087018601,-1.0227958036828722,2.171232245662213,-2.195707457421463
1761860587574372352,4.863372325897217,-0.11100006103515625,-0.040555719286203384,-0.059517960995435715,0.4296691119670868,0.8532131314277649,0.29565468430519104,-0.01607966423034668,-0.05127227306365967,0.03338584303855896,0.1998546071778963,-0.5829632995142487,-0.5549604727800226,0.5587761050650177,-1.022115136246288,2.1734899683554336,-2.1934086310251963
1761860587584416512,4.873416423797607,-0.04376250132918358,-0.024811044335365295,-0.05848598852753639,0.42929351329803467,0.8531372547149658,0.2964181900024414,-0.013674676418304443,-0.03293168544769287,0.049956291913986206,0.19979380408249078,-0.583007151833104,-0.5552582792789404,0.5584561453773048,-1.021969676587343,2.175103779100782,-2.1917931358278624
1761860587594461440,4.8834614753723145,-0.012210167944431305,-0.026303745806217194,-0.0640924721956253,0.4289388954639435,0.8532232046127319,0.2966840863227844,0.005219399929046631,-0.002042233943939209,0.03981789946556091,0.19992454192316317,-0.5830278344960832,-0.5553562772051664,0.5582903184714229,-1.0221345127081505,2.1759096829023403,-2.1912266175971147
1761860587604505344,4.893505334854126,-0.03405384719371796,-0.08764922618865967,-0.01708785817027092,0.42873331904411316,0.8532926440238953,0.2967819273471832,0.02324727177619934,0.004083454608917236,0.03111422061920166,0.19992124973494252,-0.582935390076698,-0.5554973412863731,0.5582477641987555,-1.0222676502275323,2.1762882642924666,-2.190650008330824
1761860587614549504,4.903549432754517,0.014637792482972145,-0.10401808470487595,-0.021231206133961678,0.4290412664413452,0.8532354831695557,0.29650041460990906,0.02530437707901001,-0.00881427526473999,0.03629368543624878,0.19970899865214184,-0.5827961887518872,-0.5555166999076162,0.5584496265682707,-1.0221580251213078,2.17550833603238,-2.1908200971718035
1761860587624594432,4.913594484329224,0.14738424122333527,-0.09854435175657272,-0.10136207938194275,0.4289403259754181,0.8537205457687378,0.29524773359298706,-0.006638139486312866,0.007073402404785156,0.047861307859420776,0.1999404472746832,-0.5823888628754803,-0.5553801150730696,0.5589274401203199,-1.0230888464736418,2.1736394985339555,-2.192189574685896
1761860587634638336,4.923638343811035,0.2715805172920227,-0.06544418632984161,-0.06921479851007462,0.42871832847595215,0.8546663522720337,0.2928238809108734,-0.020652562379837036,0.013314485549926758,0.014442294836044312,0.20064111675292995,-0.5818361392842577,-0.5548681385903624,0.5597598667754826,-1.0249078216748826,2.170036307141182,-2.195700126923498
1761860587644683264,4.933683395385742,0.31702858209609985,-0.029871715232729912,-0.022991998121142387,0.4287045896053314,0.8554893136024475,0.2904309034347534,-0.008614957332611084,0.018411874771118164,-0.0034131407737731934,0.2015330186101396,-0.5816229811649226,-0.5540127744704056,0.5605077089317279,-1.0264950872538137,2.1662351452975823,-2.200407598127247
1761860587654727424,4.943727493286133,0.29013678431510925,-0.017790017649531364,-0.003499257378280163,0.4287180006504059,0.8560982346534729,0.2886119782924652,0.0035025179386138916,0.00922781229019165,-0.00937613844871521,0.20239275016409158,-0.5816554491210306,-0.5531572381481745,0.5610091297981529,-1.0276720865341755,2.1633068091633993,-2.204706976459101
1761860587664771328,4.953771352767944,0.1854546070098877,0.020379172638058662,0.007156494073569775,0.4286480247974396,0.8564364910125732,0.2877110540866852,-1.3321638107299805e-05,-0.010199189186096191,-0.016989558935165405,0.2030302313408427,-0.5818301778599715,-0.5525659889760208,0.5611802569725826,-1.0283269626078306,2.1619348616952165,-2.2074089055772315
1761860587674816256,4.963816404342651,0.05568542703986168,0.055110253393650055,0.025221513584256172,0.4286823868751526,0.856461226940155,0.28758564591407776,-0.013414472341537476,-0.018067121505737305,-0.02104523777961731,0.20340194857997176,-0.5821615085899208,-0.5521601269221413,0.5611014150537441,-1.0283749041943542,2.1616960377419234,-2.208900802523282
1761860587684860160,4.973860263824463,-0.06139965355396271,0.09723293781280518,0.0390331968665123,0.4289279878139496,0.8560603857040405,0.28841203451156616,-0.023166269063949585,-0.030269980430603027,-0.03510093688964844,0.2034494192801908,-0.5827413099498263,-0.5519226260855375,0.5607159276463695,-1.0275988790759305,2.162759040275928,-2.2091176708269877
1761860587694904320,4.9839043617248535,-0.10277186334133148,0.12918847799301147,0.05739516019821167,0.4292466342449188,0.8553213477134705,0.29012531042099,-0.030259817838668823,-0.02951568365097046,-0.036966800689697266,0.20328074559618817,-0.5835592767601901,-0.5518344227744927,0.5600127344947313,-1.026170748713736,2.1651600675487095,-2.2081656578630247
1761860587704949504,4.9939494132995605,-0.03643964231014252,0.14613491296768188,0.07982572168111801,0.4292975962162018,0.8547154664993286,0.29183030128479004,-0.02455824613571167,0.0004937648773193359,-0.04465320706367493,0.20336208121156799,-0.5844491886700627,-0.5516650182980987,0.5592214967698471,-1.0250024884771554,2.1678263003196365,-2.207478592416454
1761860587714993152,5.003993272781372,0.09941406548023224,0.1278485804796219,0.06725453585386276,0.429309606552124,0.8545388579368591,0.29232949018478394,-0.011630803346633911,0.028426170349121094,-0.03624120354652405,0.20385560098699723,-0.5851716426912683,-0.5511251132970009,0.5588185018398925,-1.0246623250943823,2.168608171159481,-2.2089544684142535
1761860587725038336,5.014038324356079,0.2261868566274643,0.10226524621248245,0.07725977152585983,0.42943453788757324,0.8548198938369751,0.29132285714149475,-0.0011509060859680176,0.0468524694442749,-0.01809898018836975,0.20464073969550997,-0.5855657831580992,-0.5502491647621467,0.5589818966175762,-1.025203625402842,2.1668692431333594,-2.212711344672732
1761860587735082496,5.02408242225647,0.2953416705131531,0.07467623054981232,0.08372672647237778,0.42987775802612305,0.8552780151367188,0.28931725025177,0.009727925062179565,0.0545576810836792,0.0024155080318450928,0.20554359786531542,-0.58582245529987,-0.5490634520873036,0.5595472749085009,-1.0260871585943574,2.1631859698417673,-2.2183095635763475
1761860587745126144,5.034126281738281,0.3403059244155884,0.06721276044845581,0.06902776658535004,0.4303923547267914,0.8558977842330933,0.28670796751976013,0.01525580883026123,0.04638493061065674,0.01280677318572998,0.20656584190985097,-0.5859642355593714,-0.5477224681643387,0.5603361373030504,-1.0272843763325168,2.1584445316287058,-2.2249130497132152
1761860587755171328,5.044171333312988,0.3534765839576721,0.06125899404287338,0.05006419122219086,0.43064993619918823,0.8567253947257996,0.28383544087409973,0.011671900749206543,0.02216571569442749,0.006341010332107544,0.20774893117975937,-0.5859766086179509,-0.546396501509794,0.5611798309851409,-1.0288869148363553,2.153532569686362,-2.2316643759461643
1761860587765215488,5.054215431213379,0.3126946985721588,0.044991739094257355,0.06960487365722656,0.43088436126708984,0.8575857877731323,0.28086528182029724,0.005700111389160156,-0.008251070976257324,0.0007966756820678711,0.20895250775017887,-0.5859479976828329,-0.5450665892343105,0.562055358982329,-1.0305573727767998,2.1484600845958344,-2.23852632656215
1761860587775260416,5.064260482788086,0.23427630960941315,0.0494765043258667,0.07844789326190948,0.43119579553604126,0.8582038283348083,0.27848973870277405,-0.00449901819229126,-0.02086251974105835,0.00999295711517334,0.20991777474332604,-0.586004736110684,-0.5439148136125848,0.5627519027280641,-1.0317601380222738,2.144251808624068,-2.2443422735018244
1761860587785304320,5.0743043422698975,0.17460565268993378,0.06666680425405502,0.06523782014846802,0.4313585162162781,0.8587573170661926,0.27652448415756226,-0.020530879497528076,-0.025123894214630127,-0.0040940046310424805,0.21081723757894985,-0.586087659259175,-0.5429212611931484,0.5632884718626678,-1.0328394580157956,2.1408575041900786,-2.2492979550135943
1761860587795348480,5.084348440170288,0.04433180391788483,0.07428771257400513,0.06729084998369217,0.4314427375793457,0.8590371608734131,0.2755213975906372,-0.02619987726211548,-0.03364366292953491,-0.016503512859344482,0.21145757760847042,-0.5863047105756998,-0.5422245713298229,0.5634934505082871,-1.0333857831055526,2.139119096709103,-2.2524778484391517
1761860587805393408,5.094393491744995,-0.03936595469713211,0.08923517167568207,0.07777411490678787,0.43159180879592896,0.8589017987251282,0.2757108807563782,-0.017712384462356567,-0.031066596508026123,-0.01173374056816101,0.211734369263663,-0.5867504852485229,-0.5418295969744017,0.5633056419824761,-1.033121517198299,2.1392742572926107,-2.253683265072458
1761860587815437312,5.104437351226807,-0.07665073871612549,0.07989706099033356,0.06519893556833267,0.4317838251590729,0.8584975600242615,0.276666522026062,-0.007711619138717651,-0.0154801607131958,0.003667891025543213,0.21177677475635379,-0.5873446782807947,-0.5416267120341087,0.5628651917889669,-1.0323326922757798,2.1406431121203604,-2.2536234052859108
1761860587825481472,5.114481449127197,0.02085847035050392,0.07820465415716171,0.08013172447681427,0.4320448338985443,0.8581255078315735,0.2774132490158081,0.003471553325653076,0.016538918018341064,-0.008507579565048218,0.21183815119571045,-0.5879063872493969,-0.5413618992480398,0.562510515469825,-1.0316076438031472,2.1415933900321784,-2.253947264238005
1761860587835526400,5.124526500701904,0.059262312948703766,0.06607981026172638,0.09626435488462448,0.43260887265205383,0.8578334450721741,0.2774377465248108,0.023354291915893555,0.031860947608947754,-0.020693272352218628,0.21202518125951514,-0.5884530930547561,-0.5407789081795387,0.562429176305275,-1.0310389923734093,2.1410404961195315,-2.2559439807820283
1761860587845570304,5.134570360183716,0.06930090487003326,0.04334434121847153,0.09945660084486008,0.43338316679000854,0.8575195074081421,0.27719947695732117,0.03110969066619873,0.04204726219177246,0.001380234956741333,0.2121857610926955,-0.5889872751072837,-0.5400867768115349,0.5624744827924798,-1.0304284553577507,2.139838130968304,-2.2585288197835847
1761860587855615488,5.144615411758423,0.04188712313771248,0.049843255430459976,0.07680454850196838,0.4340258538722992,0.8572013974189758,0.2771771550178528,0.017771601676940918,0.034690022468566895,0.006956666707992554,0.21231709025608492,-0.5895079186155886,-0.5395081080047924,0.5624347187880906,-1.029810457902843,2.139129209851311,-2.2605448896559555
1761860587865659136,5.154659271240234,0.02842487394809723,0.056912049651145935,0.0816628634929657,0.43436291813850403,0.8570173382759094,0.27721819281578064,-0.006765931844711304,0.0006180405616760254,0.005893319845199585,0.21252667666503067,-0.5899396045092717,-0.5390550631878513,0.5623372987296194,-1.0294531713981987,2.138844239374734,-2.262066149937348
1761860587875703296,5.164703369140625,0.00010375678539276123,0.08286988735198975,0.13768857717514038,0.434969037771225,0.8566873073577881,0.2772884964942932,-0.011201947927474976,-0.006437063217163086,0.00017726421356201172,0.21266798036823048,-0.5904879422184698,-0.5384869911938127,0.5622527266181212,-1.0288130366233808,2.138326992695689,-2.263966006630093
1761860587885748480,5.174748420715332,0.0006550643593072891,0.1062161847949028,0.13116508722305298,0.4358274042606354,0.85611891746521,0.27769583463668823,0.000741809606552124,0.012060403823852539,0.000655055046081543,0.21267510285819285,-0.5912192971743094,-0.5378732690112016,0.5620688701395566,-1.027712096976625,2.1380987293487643,-2.2657600771190642
1761860587895792128,5.1847922801971436,0.10717272013425827,0.11081279814243317,0.05697181075811386,0.43621915578842163,0.8559174537658691,0.27770164608955383,0.01126009225845337,0.0004363059997558594,-0.006598711013793945,0.21304422929080027,-0.5918209932879477,-0.5372138623858236,0.5619264768032263,-1.0273224813537902,2.137701162070874,-2.2680029156715156
1761860587905836544,5.194836616516113,-0.18881995975971222,0.03490009158849716,0.04293304681777954,0.43620073795318604,0.855816662311554,0.27804088592529297,0.009004980325698853,-0.036175549030303955,-0.05099010467529297,0.2132833945503004,-0.5921925214825792,-0.5369622483470772,0.5616847320302708,-1.0271275355105878,2.1382734901050298,-2.2685817339167347
1761860587915880448,5.204880475997925,-0.41764888167381287,0.021027684211730957,0.1208970919251442,0.43697044253349304,0.8546676635742188,0.28035658597946167,0.006297320127487183,-0.0785599946975708,0.05564197897911072,0.2122903514949428,-0.5927814082235835,-0.5373904476183696,0.5610297970191006,-1.0249103609661347,2.1412378339808598,-2.2653353960341587
1761860587925924608,5.214924573898315,-0.4380655586719513,0.17116987705230713,0.007482730783522129,0.43736258149147034,0.853078305721283,0.2845545709133148,-0.014022737741470337,-0.12579870223999023,0.025198787450790405,0.21111798860611114,-0.5938233483773977,-0.5381924495126293,0.5595997413220946,-1.0218567127424756,2.1476036275346964,-2.2593606588292667
1761860587935969536,5.2249696254730225,-0.20213666558265686,0.13533517718315125,-0.047027647495269775,0.4365648925304413,0.8523504137992859,0.28794077038764954,-0.034999340772628784,-0.03377741575241089,-0.03971076011657715,0.21082864779654828,-0.5945964974649183,-0.5389113048963794,0.5581943263567042,-1.0204633205761695,2.1538628334984136,-2.2542715448649
1761860587946013440,5.235013484954834,-0.01384754478931427,0.048840608447790146,0.06393961608409882,0.4363323152065277,0.8520522117614746,0.2891734540462494,0.02878609299659729,0.04260110855102539,-0.018818259239196777,0.21082777435073066,-0.5950165647254645,-0.5390194985411104,0.5576423529759907,-1.0198934243019233,2.156073291023004,-2.2529438301657088
1761860587956058624,5.245058536529541,0.14715145528316498,0.01029481366276741,0.04490094259381294,0.4367321729660034,0.8520302176475525,0.2886333465576172,0.05798819661140442,0.06615197658538818,-0.002500593662261963,0.21100203243643703,-0.5951888310844966,-0.538578617595874,0.5578183873943882,-1.0198513572644665,2.1547912805320717,-2.2548661013811504
1761860587966102528,5.255102634429932,0.2531895935535431,0.03290148824453354,0.0508931428194046,0.43701672554016113,0.8524710536003113,0.2868960499763489,0.01940414309501648,0.048438310623168945,0.01135215163230896,0.2116564586177901,-0.5951991707330587,-0.5377601497170449,0.5583488607771079,-1.0206939972138145,2.151718726314938,-2.258976509906552
1761860587976146432,5.265146493911743,0.30634522438049316,0.04243693873286247,0.032024383544921875,0.4373469352722168,0.8530882596969604,0.2845485806465149,-0.018767893314361572,0.031951904296875,0.034314364194869995,0.2125581569883233,-0.5951945571439139,-0.5366728336164401,0.5590569621235616,-1.0218758616421464,2.14761034938891,-2.2644766363025632
1761860587986191616,5.27519154548645,0.2713561952114105,0.05202152207493782,0.005511814262717962,0.4375225603580475,0.85386061668396,0.2819506824016571,-0.029334694147109985,-0.002237081527709961,0.03964352607727051,0.21358346886025575,-0.5950950707096694,-0.5355718420214209,0.5598274777071087,-1.0233578629146611,2.143242734204585,-2.2702272449753407
1761860587996235520,5.285235643386841,0.12878866493701935,0.07201600074768066,-0.0003841579891741276,0.43753528594970703,0.8542082905769348,0.28087592124938965,-0.025029122829437256,-0.041357219219207764,0.04752376675605774,0.21427878609416853,-0.5952750619065554,-0.5348696668227201,0.5600417133804831,-1.0240261976903513,2.141491896257616,-2.273438139500074
1761860588006279424,5.295279502868652,-0.04423634335398674,0.07461095601320267,-0.03377877548336983,0.4373832643032074,0.8541764616966248,0.2812095582485199,-0.01210552453994751,-0.0692794919013977,0.0499366819858551,0.21452951619253088,-0.5955722579565017,-0.5346947340319528,0.5597967947207545,-1.0239649784953258,2.1421897506559313,-2.2737541946278257
1761860588016324608,5.305324554443359,-0.1528640240430832,0.06793919950723648,-0.06539156287908554,0.4366810619831085,0.8541613817214966,0.2823442220687866,-0.002995729446411133,-0.07628339529037476,0.03879228234291077,0.21462391147906437,-0.5957435189795114,-0.5350343592265977,0.5592535788478488,-1.0239359700349742,2.144755455595264,-2.2716798848948825
1761860588026368512,5.31536865234375,-0.12610188126564026,0.04337203875184059,-0.07872317731380463,0.43593722581863403,0.8540856838226318,0.28371959924697876,0.005163908004760742,-0.058019161224365234,0.01707690954208374,0.21471513821965427,-0.5959969837952813,-0.53539462050015,0.558603402855352,-1.0237904018033963,2.1477525234350314,-2.269343297195399
1761860588036413696,5.325413703918457,-0.04198167845606804,-0.011908261105418205,-0.08062706887722015,0.43532130122184753,0.8541592955589294,0.28444164991378784,0.017940998077392578,-0.017199575901031494,0.021634310483932495,0.21489686849862974,-0.5961176480778602,-0.5355973985325685,0.5582100317654738,-1.0239320169986748,2.149562361138941,-2.268056272441832
1761860588046457600,5.3354575634002686,0.12103740125894547,-0.041313353925943375,-0.06370551884174347,0.4347521960735321,0.8545860648155212,0.28403007984161377,0.031159639358520508,0.029233455657958984,0.04391178488731384,0.21524075748710866,-0.5959012522413423,-0.5356460868687626,0.5582619062708012,-1.0247532675586863,2.1494983141690143,-2.268182900208946
1761860588056501504,5.345501661300659,0.37121421098709106,-0.07103955745697021,-0.03837432712316513,0.43435361981391907,0.8555167317390442,0.2818298935890198,0.05113527178764343,0.04734581708908081,0.064666748046875,0.21607617641625795,-0.5954403640692971,-0.5351314969891939,0.5589241132597259,-1.0265480367252018,2.146361951870989,-2.2716320444909264
1761860588066546432,5.355546474456787,0.6440743207931519,-0.12115336209535599,-0.03599390387535095,0.43421274423599243,0.8570923805236816,0.277222216129303,0.07286736369132996,0.06961977481842041,0.060180097818374634,0.21752948347674925,-0.5946281479407165,-0.5338805868822989,0.5604193925372652,-1.029598802451827,2.1390076650667673,-2.27952854848577
1761860588076590592,5.365590572357178,0.9017577767372131,-0.15356110036373138,-0.024358555674552917,0.4343445599079132,0.859371542930603,0.2698618471622467,0.07835075259208679,0.08087509870529175,0.034596800804138184,0.21963469692715593,-0.5933535067994171,-0.5318482298869264,0.5628762639777821,-1.0340393529471557,2.1267364755161,-2.2924066664409426
1761860588086635520,5.375635623931885,0.971885085105896,-0.13578790426254272,0.037563666701316833,0.43478724360466003,0.8618900775909424,0.26097121834754944,0.05903300642967224,0.06186193227767944,0.016174256801605225,0.22220175615079196,-0.5920205825748425,-0.529147648430163,0.5658099810858143,-1.0389851944714035,2.111383009382323,-2.3090090983396014
1761860588096679424,5.385679483413696,0.8259302973747253,-0.11258137226104736,0.052914928644895554,0.4355708062648773,0.8639976382255554,0.2525593340396881,0.03725326061248779,0.03805619478225708,0.014789938926696777,0.2245529321982792,-0.5909165290562634,-0.5264003405333123,0.5685915582927434,-1.0431561938024134,2.09625685014601,-2.3255709440505834
1761860588106723584,5.395723581314087,0.6156349778175354,-0.10746634006500244,0.015587618574500084,0.4361546039581299,0.8656588792800903,0.24577264487743378,0.022570431232452393,-0.018307626247406006,-0.013747423887252808,0.22634726127323526,-0.5899049222056797,-0.5243076447868023,0.5708596308786998,-1.0464649368694925,2.083944275681511,-2.3386495985910964
1761860588116768512,5.405768632888794,0.4621165096759796,-0.08151676505804062,0.0093978988006711,0.43649694323539734,0.8669058084487915,0.24071688950061798,0.0061757564544677734,-0.07625645399093628,-0.025491729378700256,0.22764547502034954,-0.58906312404393,-0.5228413541917947,0.5725548469056463,-1.0489610626370798,2.0747707997089004,-2.348157970145976
1761860588126812416,5.4158124923706055,0.45792415738105774,-0.06821001321077347,0.0009514177218079567,0.43676576018333435,0.8679527640342712,0.23641933500766754,-0.010145217180252075,-0.06802588701248169,-0.01954612135887146,0.22879105898495997,-0.5883745611172728,-0.521560201351588,0.5739731267541831,-1.0510652219342471,2.066932066042569,-2.356413576602468
1761860588136857600,5.4258575439453125,0.5202159881591797,-0.04874177649617195,-0.026113489642739296,0.43682658672332764,0.8691547513008118,0.23184555768966675,-0.023038774728775024,-0.02775472402572632,-0.03499189019203186,0.2301072155587788,-0.5875967817504008,-0.520243019666999,0.5754370538286826,-1.0534905606891174,2.0587399813693112,-2.3651077940896807
1761860588146901504,5.435901641845703,0.5485081076622009,-0.012021844275295734,-0.001315198838710785,0.4367896616458893,0.8704517483711243,0.22699837386608124,-0.02205580472946167,-0.009367942810058594,-0.029809147119522095,0.23172940446759235,-0.5869185821494192,-0.5186769401185198,0.576890106007326,-1.0561193497684167,2.050077280323311,-2.3749756533630992
1761860588156945408,5.445945501327515,0.5436207056045532,-0.016391824930906296,0.025774741545319557,0.4369881749153137,0.871602475643158,0.22214972972869873,-0.01027613878250122,-0.011784970760345459,-0.00021064281463623047,0.23323756221817127,-0.5862778347347852,-0.5170620507095343,0.5783817132004783,-1.0584618566484139,2.0411139479550027,-2.385063093659001
1761860588166990592,5.455990552902222,0.524590015411377,-0.019039839506149292,-0.023741943761706352,0.4370708465576172,0.8727536201477051,0.2174169272184372,-0.003324538469314575,-0.009151995182037354,0.029821261763572693,0.23484083849728724,-0.5857037239604727,-0.5154217791117474,0.5797769265062774,-1.0608149874219441,2.0323945812911632,-2.395201160559998
1761860588177034496,5.466034650802612,0.6097818613052368,-0.030535373836755753,-0.009499359875917435,0.4369851350784302,0.8740452527999878,0.2123415470123291,0.0022390782833099365,0.008202672004699707,0.0539243221282959,0.23651620096328113,-0.5849459732152057,-0.5138180437068968,0.5812825086401782,-1.0634672593443746,2.023119819276483,-2.4056350282164125
1761860588187079680,5.476079702377319,0.752646267414093,-0.05478871613740921,0.003956350032240152,0.4370845854282379,0.875471293926239,0.2061726450920105,0.021838784217834473,0.024690449237823486,0.04603993892669678,0.2384670674593176,-0.5840698509389477,-0.5118092718045247,0.5831356326967887,-1.066410179775627,2.011548438034703,-2.4185983500231294
1761860588197123584,5.486123561859131,0.9811905026435852,-0.10767483711242676,0.00045029865577816963,0.43729546666145325,0.8772051930427551,0.19820016622543335,0.03215634822845459,0.05457252264022827,0.04587931931018829,0.24083760830595316,-0.5828550562837029,-0.5092936951509641,0.585574083630288,-1.070009807731914,1.9963420640633216,-2.4352206263522382
1761860588207167744,5.4961676597595215,1.235703945159912,-0.14294852316379547,-0.011302851140499115,0.4375264346599579,0.8793686032295227,0.18783356249332428,0.03538918495178223,0.07119286060333252,0.05139373242855072,0.24381451890718578,-0.581162497119099,-0.5061293611422595,0.5887594291118448,-1.0745344473821468,1.9763101483739405,-2.4567318126456854
1761860588217212416,5.506212472915649,1.4007368087768555,-0.14931082725524902,-0.005968539975583553,0.43772751092910767,0.8818185925483704,0.17547258734703064,0.028565794229507446,0.07095545530319214,0.05611002445220947,0.2473410502279317,-0.5790887018746167,-0.502386870290443,0.592525211274897,-1.0797047066753171,1.952053962434224,-2.482659304168761
1761860588227256576,5.51625657081604,1.474124550819397,-0.1626809984445572,-0.010928323492407799,0.437960147857666,0.8842819929122925,0.16197694838047028,0.02995067834854126,0.04430699348449707,0.03803528845310211,0.2512228799624342,-0.5768656506437102,-0.4982112985550212,0.5965724490133019,-1.0849540721814506,1.9250390615281978,-2.5117161487214217
1761860588237300736,5.526300668716431,1.5206584930419922,-0.17004543542861938,-0.016315897926688194,0.43812528252601624,0.8866649270057678,0.14789097011089325,0.026947379112243652,0.010490953922271729,0.015408650040626526,0.25522667916493036,-0.5744676624622489,-0.49389512242620554,0.6007611491893057,-1.0900822485715205,1.8963407265353767,-2.5423912711826637
1761860588247345408,5.536345481872559,1.5315673351287842,-0.16499048471450806,-0.0383056178689003,0.43814727663993835,0.8889344930648804,0.13350053131580353,0.011483430862426758,-0.009494245052337646,0.019148334860801697,0.2593764940599494,-0.5719902047801017,-0.4894665199716831,0.6049574685000478,-1.0950136074120707,1.8665533170201625,-2.5743218941682016
1761860588257389568,5.546389579772949,1.5070198774337769,-0.1574564129114151,-0.03884970396757126,0.43799880146980286,0.8910430669784546,0.11916184425354004,-0.006495535373687744,-0.0039122700691223145,-0.01901841163635254,0.2635244764843634,-0.5694420364713552,-0.48509451663119324,0.609076363381814,-1.0996378620801734,1.8364269580011,-2.606524094754006
1761860588267434496,5.556434631347656,1.3938727378845215,-0.1087774783372879,0.004910383839160204,0.4379984140396118,0.892763614654541,0.10550064593553543,-0.016199737787246704,-0.028994202613830566,-0.0440383106470108,0.26746569194872377,-0.5670839982756295,-0.48079731948738036,0.6129532698277546,-1.1034425562110262,1.8071636993444886,-2.637988174331729
1761860588277478400,5.566478490829468,1.0459859371185303,-0.03895232826471329,0.026694243773818016,0.4382171630859375,0.8939091563224792,0.09429886192083359,-0.0243377685546875,-0.06508225202560425,-0.0479578971862793,0.2707355815653405,-0.565295928025631,-0.47706387771420516,0.6160786361430394,-1.1059917258437206,1.782751706731793,-2.6646487228033524
1761860588287522560,5.576522588729858,0.7201985120773315,0.06705716252326965,0.05681077763438225,0.43863600492477417,0.8945249319076538,0.08616244792938232,-0.051093220710754395,-0.11823391914367676,-0.12235628813505173,0.27322222800634954,-0.5642175683846155,-0.4740672534705448,0.6182787046899064,-1.1073673324053488,1.7647594455089477,-2.6849698568725593
1761860588297567488,5.586567640304565,0.2629470229148865,0.13558028638362885,-0.013016507029533386,0.43882498145103455,0.8947954773902893,0.08230219036340714,-0.08691155910491943,-0.15027344226837158,-0.10824216157197952,0.2747409299573677,-0.563957313130472,-0.47233806134275236,0.6191658154775954,-1.1079729056710204,1.7561938218192874,-2.69573037408831
1761860588307611392,5.596611499786377,0.09039273858070374,0.15042273700237274,-0.13496443629264832,0.4380543828010559,0.8952520489692688,0.08143886178731918,-0.09583023190498352,-0.11561936140060425,-0.12942779064178467,0.2757965835646476,-0.5640156016482442,-0.4718112233244377,0.6190451348799823,-1.108996544554864,1.7546082076684735,-2.6991726343360214
1761860588317656576,5.606656551361084,-0.023450737819075584,0.23334823548793793,-0.07513517886400223,0.4369000792503357,0.8957767486572266,0.08186900615692139,-0.0832318663597107,-0.12003517150878906,-0.1653803586959839,0.2767609546325809,-0.5643124375597744,-0.4716841916643131,0.6184407380697081,-1.1101755610468425,1.7560342608724937,-2.699846376725671
1761860588327700736,5.616700649261475,-0.1657782942056656,0.28449687361717224,0.0300995372235775,0.4366118907928467,0.8957366347312927,0.08382084220647812,-0.04905390739440918,-0.021942079067230225,-0.14505434036254883,0.2771606079138265,-0.5652371381754178,-0.4716114894930979,0.6174719368643381,-1.1100854019942272,1.7604687859081836,-2.6978589033936435
1761860588337745664,5.626745700836182,-0.17515048384666443,0.27987948060035706,0.006899676285684109,0.43664392828941345,0.895457923412323,0.08658794313669205,-0.008802682161331177,0.05725520849227905,-0.11458777636289597,0.2772413920770376,-0.5664122448723962,-0.4716684640681486,0.6163143379767445,-1.1094588205867915,1.7665599343972447,-2.6941894317057424
1761860588347789568,5.636789560317993,-0.12176595628261566,0.31543228030204773,0.004953527357429266,0.4364372789859772,0.8953133821487427,0.08908785879611969,0.00045236945152282715,0.056880831718444824,-0.0960763692855835,0.27748315253598893,-0.5674820819667667,-0.4717075553346874,0.6151904119073388,-1.109134206019176,1.772155296895416,-2.6910654089959807
1761860588357833728,5.646833658218384,-0.08712995052337646,0.36248233914375305,0.045567531138658524,0.43644654750823975,0.8950663805007935,0.09149151295423508,-0.006957441568374634,0.07346999645233154,-0.0591123104095459,0.2778368234099791,-0.568716340766967,-0.47149494035473605,0.614052929426072,-1.1085800409336568,1.7774324067947258,-2.6888134826925216
1761860588367878656,5.656878709793091,0.07953622937202454,0.3652685880661011,0.026022503152489662,0.4364984333515167,0.8948771357536316,0.09308139234781265,-0.016637563705444336,0.08885705471038818,-0.04518400877714157,0.2785556222353386,-0.5699310834064191,-0.47087074091149494,0.613079238194711,-1.1081559057194537,1.7808950333265667,-2.6889938976883725
1761860588377922560,5.666922569274902,0.23908434808254242,0.3835679590702057,0.04684576019644737,0.4364749789237976,0.8948872089385986,0.09309293329715729,-0.027356356382369995,0.06632483005523682,-0.005446441471576691,0.27982912515385455,-0.5709007986802633,-0.4697006958855301,0.6124941874545657,-1.1081784663046046,1.7809312962440293,-2.693095384099293
1761860588387966720,5.676966667175293,0.1181802973151207,0.38830146193504333,0.07028637081384659,0.4367634952068329,0.8947215676307678,0.09333205223083496,-0.03521323204040527,0.0929340124130249,0.08110641688108444,0.2810482987627106,-0.5720821490446535,-0.46838877042109534,0.6118380242383985,-1.107807356642983,1.7813201631015552,-2.697215865272915
1761860588398011392,5.687011480331421,0.34787315130233765,0.40635475516319275,-0.024436408653855324,0.43667083978652954,0.8948107957839966,0.09290964901447296,-0.05199676752090454,0.05733764171600342,0.06297409534454346,0.2826104488484395,-0.5730584484947435,-0.4669677081912269,0.6112908382489772,-1.1080071730488303,1.7804382758345303,-2.702764713950768
1761860588408055552,5.6970555782318115,0.5467548370361328,0.46177029609680176,-0.04524528607726097,0.4358985126018524,0.8954061269760132,0.09077594429254532,-0.059006452560424805,-0.005437314510345459,0.017073146998882294,0.28511559430967465,-0.573707115036747,-0.465024858270042,0.6110000869542963,-1.1093425463981692,1.7761120219251338,-2.712696827836265
1761860588418100480,5.7071006298065186,0.7818542122840881,0.37206971645355225,0.0015411297790706158,0.4353669583797455,0.8960786461830139,0.08659447729587555,0.010189652442932129,0.11808145046234131,-0.03453148156404495,0.2881383092618615,-0.5740400694620778,-0.46235834322345776,0.6112929331628546,-1.1108552295315477,1.7671339418937186,-2.7276349302922838
1761860588428144384,5.71714448928833,1.0451120138168335,0.26363134384155273,0.04304889217019081,0.4353198707103729,0.8967528343200684,0.07956856489181519,0.05955320596694946,0.12044394016265869,-0.06606458872556686,0.29148663491681986,-0.5737076766315579,-0.4589594581742853,0.6125776276666758,-1.1123763619371003,1.751582481419185,-2.7485240570047265
