time,seconds_elapsed,rotationRateX,rotationRateY,rotationRateZ,gravityX,gravityY,gravityZ,accelerationX,accelerationY,accelerationZ,quaternionW,quaternionX,quaternionY,quaternionZ,pitch,roll,yaw,timestamp,omega_mag,isSwing
1761072567283960576,0.2529606819152832,-0.0716258063912391,0.1135744825005531,0.0804637596011161,0.2107172906398773,-0.0713809579610824,-0.9749374389648438,0.0127781927585601,0.0142215341329574,-0.0219955444335937,0.6316826657160873,0.104677646714052,0.0396721312661954,-0.767102139299603,0.0714417129092823,0.2128599640621078,-1.7714548021634662,0,0.15653701104087145,0
1761072567294005760,0.2630057334899902,-0.063945785164833,0.1258737593889236,0.0763806030154228,0.2118431776762008,-0.0708958879113197,-0.97472882270813,0.0064643174409866,0.0051762759685516,-0.0134761333465576,0.6319945451255751,0.1049472400003278,0.0402700297164319,-0.7667771931105796,0.0709554102366007,0.2140074033852735,-1.7705436314355971,10,0.16052184667529595,0
1761072567304051712,0.2730517387390136,-0.0529238954186439,0.1252539008855819,0.0771736875176429,0.2149656116962433,-0.0730402991175651,-0.973886489868164,-0.0074918568134307,0.0033534169197082,-0.0124568939208984,0.6322774484314163,0.1068467010406282,0.0405035304721125,-0.7662692364476111,0.0731054002909333,0.2172461568511844,-1.7698048871794207,20,0.15634978873797534,0
1761072567314097664,0.2830977439880371,-0.0272025540471076,0.1196644604206085,0.0842276066541671,0.2193427085876464,-0.0719639211893081,-0.9729902148246764,-0.0106482654809951,0.0197178348898887,-0.0091722011566162,0.6323942158181642,0.1082113033677718,0.0423698618944319,-0.7658802459905674,0.072026183912987,0.2217251771300407,-1.7691703177937077,30,0.148841700330016,0
1761072567324143616,0.2931437492370605,-0.0244882591068744,0.1151599884033203,0.0936942547559738,0.2231130748987198,-0.0755538642406463,-0.97186017036438,-0.0086813271045684,0.0271682441234588,-0.0108668804168701,0.6327003716477101,0.1108304308779582,0.0422674559093196,-0.7652582906740785,0.0756259345545093,0.2256630292093048,-1.7684493204650935,40,0.15046631230084562,0
1761072567334189568,0.303189754486084,-0.0562512502074241,0.1041574105620384,0.0950873494148254,0.2239835262298584,-0.077956810593605,-0.971470057964325,-0.005737081170082,0.0246578603982925,-0.0032460689544677,0.6331417126448914,0.1119228913702179,0.0416920487830392,-0.7647656714471581,0.0780359842923637,0.2266015353910956,-1.7674423982535827,50,0.15183732526498336,0
1761072567344234752,0.313234806060791,-0.0924910455942154,0.0918152928352356,0.1006218492984771,0.2224158346652984,-0.0734106227755546,-0.9721841812133788,-0.0023535788059234,0.0170141384005546,0.0104074478149414,0.6335366151015023,0.1098191061554104,0.0429845869904759,-0.7646720866959864,0.0734767187668935,0.2249089189033528,-1.766127049926383,60,0.16464931846131867,0
1761072567354280704,0.3232808113098144,-0.1247762814164161,0.0842662900686264,0.0968007445335388,0.2215490490198135,-0.0685748234391212,-0.9727350473403932,-0.0048132091760635,0.0017260760068893,0.020250916481018,0.6339255897667802,0.1078969989857795,0.0446172978644153,-0.7645298913878638,0.0686286812904757,0.2239388330826168,-1.7647593971017628,70,0.17899807872791818,0
1761072567364326656,0.3333268165588379,-0.1304083317518234,0.0701968148350715,0.0817664042115211,0.2217979729175567,-0.0656733289361,-0.9728785753250122,-0.0088310539722442,0.0013270154595375,0.0252925157546997,0.6342823644282879,0.1070371850045331,0.0458668266048426,-0.7642807829510786,0.0657206291610087,0.2241501207657804,-1.7635657376820426,80,0.16917349278467,0
1761072567374372608,0.3433728218078613,-0.1517740786075592,0.0557275898754596,0.0776981562376022,0.221520334482193,-0.0643783658742904,-0.9730283617973328,-0.0134514868259429,0.0087905973196029,0.0324460864067077,0.6346877549555681,0.1064861501424802,0.0463306120064314,-0.7639932171093387,0.0644229177926152,0.2238455089438196,-1.7624116849728346,90,0.17938210248858114,0
1761072567384417792,0.3534178733825683,-0.1629612147808075,0.0395246520638465,0.0694759115576744,0.2200752794742584,-0.0635088309645652,-0.973413348197937,-0.0178200304508209,0.0125902518630027,0.0397433042526245,0.6351459058326593,0.1056126017735989,0.0462527440153646,-0.7637383779001957,0.0635516019947619,0.2223480201724024,-1.761227997185575,100,0.18150883705862475,0
1761072567394463744,0.3634638786315918,-0.1822607070207595,0.0246446058154106,0.0621972270309925,0.2192868441343307,-0.0609889924526214,-0.9737523198127748,-0.017886072397232,0.0165248811244964,0.0459416508674621,0.6354967618797901,0.1044692413822847,0.0470106932700063,-0.7635575232986771,0.0610268653037517,0.22150265571413,-1.7601439268300794,110,0.19415153094902168,0
1761072567404509696,0.3735098838806152,-0.2146451473236084,0.0228758677840232,0.0548532009124755,0.2190547287464141,-0.0583104789257049,-0.9739686250686646,-0.0240321457386016,0.0149755179882049,0.044021725654602,0.6358176880247204,0.1034933857936656,0.0480083246936024,-0.7633610737104926,0.0583435723442676,0.2212282315545559,-1.759087475532354,120,0.22272116703804798,0
1761072567414555904,0.3835558891296386,-0.2430549561977386,0.0314451195299625,0.0202819108963012,0.2192368954420089,-0.0558413155376911,-0.9740723371505736,-0.0319352746009826,0.0104006417095661,0.0304993987083435,0.6360724732026419,0.1027505161514978,0.0490526212899082,-0.7631828199475688,0.0558703761960451,0.2213834518000773,-1.758193282695213,130,0.24591840757483724,0
1761072567424601856,0.3936018943786621,-0.271144837141037,0.0366805642843246,0.0147931342944502,0.2197892069816589,-0.0534291379153728,-0.9740831851959229,-0.0256363749504089,0.0052876621484756,0.0275804996490478,0.6362462185245266,0.1021752153248466,0.0501860309281194,-0.7630415142564125,0.0534545918497137,0.2219206667190049,-1.7574882958651483,140,0.2740142757717371,0
1761072567434646528,0.40364670753479,-0.2928975224494934,0.0438481941819191,0.0030264900997281,0.2202181667089462,-0.0513331331312656,-0.9740989804267884,-0.0138430595397949,0.0034205392003059,0.0318535566329956,0.6364481684109995,0.1016517040881094,0.0511608203601628,-0.7628782070752603,0.0513557032970705,0.2223361648635506,-1.7567422310739598,150,0.2961769444646064,0
1761072567444690688,0.4136908054351806,-0.2969952523708343,0.0636934414505958,-0.0453795716166496,0.2206968069076538,-0.0489100329577922,-0.9741153717041016,-0.0214017629623413,0.0007685534656047,0.0225467681884765,0.636527766027027,0.1010497758095544,0.0522614989749958,-0.7628172140330454,0.048929555391061,0.2227999788168354,-1.7562811209563889,160,0.3071194229200535,0
1761072567454736640,0.4237368106842041,-0.3513122797012329,0.0662005394697189,-0.0730162560939788,0.2212227582931518,-0.0458819456398487,-0.974143385887146,-0.0267647504806518,-0.0063183642923831,0.0320352315902709,0.6364516543912462,0.1002815890900586,0.0535901773871803,-0.7628899998102808,0.0458980590839008,0.2233072681962788,-1.7561652648800818,170,0.3648755992786317,0
1761072567464782592,0.4337828159332275,-0.379749447107315,0.0700956135988235,-0.0991587340831756,0.2216921597719192,-0.0422166660428047,-0.9742023944854736,-0.0222445279359817,-0.0042921192944049,0.0436604022979736,0.6363097845603425,0.0992907800231618,0.0551374004118868,-0.7630276589577193,0.0422292167315598,0.2237523391569504,-1.7561600259947514,180,0.3986922273748072,0
1761072567474828544,0.4438285827636719,-0.3775920271873474,0.0755670741200447,-0.1382392942905426,0.2222851663827896,-0.0383357517421245,-0.9742277264595032,-0.0308789163827896,-0.0037479847669601,0.0451810956001281,0.6360377333062356,0.0982890385994948,0.0567925871573058,-0.763262657890714,0.0383451487051638,0.2243253649314818,-1.7564580561700178,190,0.40914083659842865,0
1761072567484873472,0.4538736343383789,-0.3848400712013244,0.0864239484071731,-0.1831766813993454,0.2228864580392837,-0.0343521274626255,-0.9742389917373656,-0.0425123125314712,0.0142715610563755,0.0558429956436157,0.6356128731436651,0.0972705178392802,0.0584719129296515,-0.7636201288253519,0.0343588871657093,0.2249094353865669,-1.7571366968482554,200,0.4348846696182833,0
1761072567494919424,0.4639196395874023,-0.3785387575626373,0.0882639288902282,-0.2249723225831985,0.2234681248664856,-0.0303148459643125,-0.974239706993103,-0.0529053807258605,0.022868562489748,0.0594600439071655,0.6350092964783555,0.096243226996209,0.0601447040457756,-0.7641224875080104,0.0303194910935918,0.2254765480492424,-1.758270070403844,210,0.44910428415756964,0
1761072567504965632,0.4739656448364258,-0.419498860836029,0.1033916473388671,-0.2600996792316437,0.2244967669248581,-0.0258973855525255,-0.974130630493164,-0.0659426897764206,0.0113252457231283,0.066110610961914,0.6342276159180179,0.0952852431687256,0.0620918259453813,-0.764735769406085,0.0259002802978543,0.2265038856868071,-1.759782408865768,220,0.5043024589654254,0
1761072567515011584,0.4840116500854492,-0.4970567524433136,0.1075909212231636,-0.2945980131626129,0.2255710363388061,-0.0208047125488519,-0.974004566669464,-0.0786746740341186,0.0064156763255596,0.0833032727241516,0.6333400981884505,0.0941412327927261,0.0643051336182602,-0.7654297288377367,0.0208062143953293,0.22757926436959,-1.7614812919578868,230,0.5877322611857388,0
1761072567525056512,0.4940567016601562,-0.5608164668083191,0.1173382550477981,-0.3372797667980194,0.2267440110445022,-0.0148987146094441,-0.9738404154777528,-0.0894606858491897,0.0142883695662021,0.0872895121574401,0.6323370974288371,0.0927903729767555,0.0668560484433137,-0.7662049870390041,0.0148992660101874,0.2287591572264614,-1.7633657940404486,240,0.6648616522498157,0
1761072567535102720,0.5041027069091797,-0.6218851208686829,0.1220073103904724,-0.367787629365921,0.227946326136589,-0.0083148824051022,-0.9736381769180298,-0.0960646271705627,0.0179889537394046,0.0955559611320495,0.6312086440893693,0.0912522717455909,0.0696701150516415,-0.7670689418088736,0.0083149783948525,0.2299760507278841,-1.7654738511651855,250,0.7327309381083738,0
1761072567545148672,0.5141487121582031,-0.7114608883857727,0.1340728253126144,-0.4094605147838592,0.2291955649852752,-0.0009360134135931,-0.9733799695968628,-0.1144647300243377,0.0185751728713512,0.1207188367843627,0.6299816215333258,0.0894963190743691,0.0728040931348102,-0.7679929395148246,0.0009360135695189,0.2312512695529758,-1.767712027765873,260,0.8317511835621533,0
1761072567555194624,0.5241947174072266,-0.785327136516571,0.1493047773838043,-0.4883180260658264,0.2305602431297302,0.0074590360745787,-0.9730294942855836,-0.1414183974266052,0.0311304442584514,0.147208571434021,0.6285311283545398,0.0874938422672501,0.0763550483998272,-0.7690666524832234,-0.0074591053058859,0.2326599884911355,-1.7703611945554152,270,0.9367417586932748,0
1761072567565240576,0.53424072265625,-0.8485790491104126,0.1475726217031479,-0.5600245594978333,0.2319343239068985,0.0166271608322858,-0.9725893139839172,-0.1598518192768097,0.0206500682979822,0.164544939994812,0.6267826982098893,0.08529339330302,0.0801895862107729,-0.7703494530770922,-0.0166279275984219,0.2340987313470789,-1.773638756942573,280,1.02737120287957,0
1761072567575285760,0.544285774230957,-0.9360013604164124,0.1595424711704254,-0.6317040324211121,0.2332900911569595,0.0267184153199195,-0.972040057182312,-0.171415701508522,0.0111386403441429,0.179040789604187,0.632304917485989,0.0820079411172576,0.0851743701825865,-0.7656438389405985,-0.0267215945996804,0.2355454518142761,-1.757822717160423,290,1.1404395342961564,0
1761072567585331712,0.5543317794799805,-1.0038397312164309,0.1562169194221496,-0.7327309846878052,0.2346065491437912,0.0378013253211975,-0.971355140209198,-0.1628139466047287,0.0149177908897399,0.189342200756073,0.6302653364473869,0.0792053788334922,0.0897158458337206,-0.767100475885243,-0.0378103350227302,0.2369864156895629,-1.7615192539251732,300,1.252594358842472,0
1761072567595377664,0.5643777847290039,-1.092620611190796,0.1413753926753997,-0.7795640230178833,0.235723003745079,0.049793466925621,-0.9705438017845154,-0.141240581870079,0.0017964951694011,0.1980828642845153,0.6293675058924232,0.0759162256275053,0.094682765555831,-0.7675730438847785,-0.0498140651844197,0.2382637447408674,-1.7620594414868227,310,1.3496395324815063,0
1761072567605423616,0.5744237899780273,-1.2078124284744265,0.1377968043088913,-0.8154954314231873,0.2366340309381485,0.0628940612077713,-0.9695611000061036,-0.1355598121881485,-0.0037357360124588,0.204714298248291,0.627343987553821,0.0723479337624997,0.0999261794900325,-0.7689083231933944,-0.0629355983120245,0.2393831879983068,-1.7653117843024413,320,1.4638413917932247,0
1761072567615469568,0.5844697952270508,-1.288307547569275,0.1324851214885711,-0.8689042925834656,0.2373495399951934,0.0770191624760627,-0.968366265296936,-0.1444235146045684,0.0014873072504997,0.2129799127578735,0.6243956269786431,0.0685270810476231,0.1054556732837492,-0.7709171964931563,-0.0770955141758342,0.2403644891238234,-1.7707342528492818,330,1.559577928226023,0
1761072567625514496,0.5945146083831787,-1.420706033706665,0.1305652409791946,-0.9102829098701476,0.2378664910793304,0.0922952517867088,-0.9669028520584106,-0.1616183221340179,0.0151266232132911,0.2266379594802856,0.6213237157523335,0.0643178639383242,0.1114082090310827,-0.772921849326041,-0.0924267891851068,0.241218609736976,-1.776198129551101,340,1.6923557227616604,0
1761072567635560448,0.6045606136322021,-1.514576435089111,0.1307796239852905,-0.9830620288848876,0.2381738126277923,0.1088270023465156,-0.965106189250946,-0.1748345792293548,0.0378709957003593,0.234149158000946,0.6165368537372119,0.0599289877869453,0.1177091036670637,-0.7761670661295567,-0.1090429652112951,0.2419505860083032,-1.7857688563607248,350,1.8103745580437893,0
1761072567645606400,0.6146066188812256,-1.6165752410888672,0.128478392958641,-1.097413182258606,0.2382081896066665,0.1264880150556564,-0.9629421830177308,-0.1728548109531402,0.0472790747880935,0.2249203324317932,0.6128527982339219,0.0549680245812563,0.1245288103680365,-0.7783846603481648,-0.1268277527767671,0.242506916560162,-1.7921719261178526,360,1.9580954777930835,0
1761072567655652608,0.624652624130249,-1.7048797607421875,0.1117476224899292,-1.1544653177261353,0.2378343343734741,0.1452517807483673,-0.9603836536407472,-0.1260789632797241,0.0679440349340438,0.2273361682891845,0.6086124976643373,0.0496430483914686,0.1316956336377443,-0.7808859386377689,-0.1457674441753268,0.2427610884863472,-1.7996906812521234,370,2.062011808781171,0
1761072567665698560,0.6346986293792725,-1.7661007642745972,0.0858662128448486,-1.1528266668319702,0.2369987070560455,0.1647735834121704,-0.9574347734451294,-0.0476371496915817,0.0883087068796157,0.2201606035232544,0.6044111300105144,0.0439487283067884,0.139108360465248,-0.783201591855278,-0.165528446781061,0.2426574199326657,-1.8068515297472696,380,2.1108041689930745,0
1761072567675743488,0.6447436809539795,-1.767238736152649,0.0627004504203796,-1.1408658027648926,0.235725462436676,0.1844899356365203,-0.9541472792625428,0.0132369399070739,0.1200449764728546,0.2212828993797302,0.5998891754449633,0.0381334148476762,0.1465340112951014,-0.7856250330688381,-0.1855528577974235,0.2422036160455306,-1.8146732059839783,390,2.104433148607889,0
1761072567685789696,0.6547896862030029,-1.7263057231903076,0.0206616483628749,-1.1193724870681765,0.2339220941066742,0.2038546949625015,-0.9506438374519348,0.0401104986667633,0.1669796556234359,0.2389891743659973,0.5956998460471506,0.0322063365839694,0.1537557396762442,-0.7876952040317904,-0.2052936965771971,0.2412736188798621,-1.8216325900717776,400,2.0575599914553835,0
1761072567695835648,0.6648356914520264,-1.678938388824463,0.0056605949066579,-1.1358444690704346,0.231603056192398,0.2227409482002258,-0.9469670057296752,0.0364023149013519,0.2152015566825866,0.2257755994796753,0.5909276852506072,0.0263847171478909,0.1606871170432244,-0.7901189525913394,-0.2246251588946433,0.2398649142650376,-1.83010235338186,410,2.027069020463062,0
1761072567705881600,0.6748816967010498,-1.6978641748428345,0.0147249307483434,-1.1868174076080322,0.2290030717849731,0.2413696944713592,-0.9430261254310608,0.016022577881813,0.2304625809192657,0.2080560326576233,0.5855775264745469,0.0207020062978057,0.1675063198100667,-0.7928505495461136,-0.243777031335689,0.2382271722426426,-1.8399796447461096,420,2.0715924161865753,0
1761072567715926528,0.6849267482757568,-1.8143043518066408,0.01667982339859,-1.1890099048614502,0.2261448502540588,0.2606795132160187,-0.9385652542114258,0.0134028792381286,0.1961381137371063,0.2075471878051757,0.5811283220481555,0.0145636295961818,0.1746576107346909,-0.7947153704186692,-0.263725971283011,0.2364405846424523,-1.8473151587702528,430,2.1692678606736786,0
1761072567725972736,0.6949727535247803,-1.9618059396743777,0.0301256570965051,-1.188415765762329,0.2231260389089584,0.2810984551906585,-0.933380126953125,0.024386778473854,0.1569508612155914,0.198089599609375,0.576611613743923,0.0080722785639269,0.1823315311666683,-0.7963723684352223,-0.2849385165894844,0.2346480701848264,-1.8544147896743663,440,2.2938879947524957,0
1761072567736018688,0.7050187587738037,-2.12902307510376,0.0245236977934837,-1.231628656387329,0.2198449969291687,0.3029767572879791,-0.9272935390472412,0.0442998856306076,0.1543596684932708,0.2106645107269287,0.572009115888548,0.001080486160029,0.1906621909006113,-0.7977796927871924,-0.3078146760322353,0.2327844900700513,-1.8612292123750969,450,2.4597255565026344,0
1761072567746064640,0.7150647640228271,-2.1377756595611572,0.0452581383287906,-1.2450999021530151,0.2162690609693527,0.3255888223648071,-0.9204453229904176,0.0735411196947097,0.1659425497055053,0.2078751325607299,0.5666423136849941,-0.0060369035331313,0.1993511676547884,-0.7994617921992784,-0.3316344074043966,0.2307753201485192,-1.869615802572449,460,2.4743497804551757,0
1761072567756110592,0.7251107692718506,-2.126719236373902,-0.0167804639786481,-1.2314748764038086,0.2122943699359893,0.3478918075561523,-0.9131825566291808,0.1042949855327606,0.1924219131469726,0.2335560917854309,0.5609803546714388,-0.0131059525112934,0.2079349696564786,-0.8011818179248165,-0.355321496973272,0.2284200991279142,-1.8786971117970812,470,2.457589604785125,0
1761072567766155520,0.7351555824279785,-2.0837011337280273,-0.1271273493766784,-1.24815833568573,0.2071725279092788,0.3699163496494293,-0.9056718349456788,0.1480673402547836,0.2163568437099456,0.2436845302581787,0.5546883661280768,-0.0203518180393846,0.2162172290818518,-0.8032165552365875,-0.3789189815168912,0.2248809702130924,-1.8895370545889791,480,2.43225636161174,0
1761072567776201472,0.745201587677002,-1.9937440156936648,-0.1477117091417312,-1.253753662109375,0.2011279463768005,0.3908311724662781,-0.898219645023346,0.1642895489931106,0.1778028607368469,0.1692309975624084,0.5490490902782396,-0.0277753724623313,0.2238720747828716,-0.8047700608455621,-0.4015344142657561,0.2202847596165048,-1.8991698293289432,490,2.3598161357157768,0
1761072567786247424,0.7552475929260254,-2.0814409255981445,-0.235525757074356,-1.2614612579345703,0.194377914071083,0.4116370975971222,-0.8903775215148926,0.1776008605957031,0.1206352412700653,0.2066617012023925,0.5431639380963008,-0.0353656747262482,0.23143145205021,-0.8063259686457349,-0.4242496829112607,0.2149373266143882,-1.909518545067048,500,2.445230707779979,0
1761072567796293376,0.7652935981750488,-2.1550452709198,-0.3600240051746368,-1.2684787511825562,0.1863427311182022,0.4328922629356384,-0.8819754123687744,0.2167639434337616,0.0622096359729766,0.2214377522468567,0.5374133073014948,-0.0436544775501562,0.2389698036217665,-0.8075732991855746,-0.4476987826574684,0.2082166782629473,-1.9196828957728584,510,2.5264353833449684,0
1761072567806339584,0.7753396034240723,-2.2028605937957764,-0.4124965369701385,-1.3085960149765017,0.1771334409713745,0.4545193016529083,-0.8729466795921326,0.2254849672317505,-0.0010281205177307,0.1667089462280273,0.5314655744754684,-0.052490099757834,0.2465186460879069,-0.8087135673010475,-0.4718324848079768,0.2001962702818776,-1.930510924334489,520,2.595220938402551,0
1761072567816384512,0.7853846549987793,-2.1796441078186035,-0.3963500559329986,-1.3795104026794434,0.1673147082328796,0.4759472012519836,-0.8634118437767029,0.2304971665143966,-0.021113246679306,0.1223382949829101,0.5253140462422867,-0.0614640753558586,0.2540004692129636,-0.8097845866494044,-0.496040741944699,0.191410777133865,-1.942048532669333,530,2.6097874922466864,0
1761072567826430464,0.7954306602478027,-2.070688009262085,-0.4833804368972778,-1.3959532976150513,0.1567012220621109,0.4965509474277496,-0.8537458181381226,0.2517307996749878,-0.0255273878574371,0.1116803884506225,0.5188566580360144,-0.0704303208012836,0.2610874845684267,-0.8109627747205838,-0.5196207061260918,0.1815250619731212,-1.9548691181958144,540,2.543637373447543,0
1761072567836476672,0.8054766654968262,-1.8366726636886597,-0.5365976095199585,-1.3345857858657837,0.145447552204132,0.5153272151947021,-0.8445607423782349,0.2604209780693054,0.0071032047271728,0.0740681886672973,0.5127875343550582,-0.0792336535361821,0.2672857199817208,-0.8119909328760221,-0.5413894308462445,0.1705439051230813,-1.9676129443863055,550,2.3329000595650733,0
1761072567846522624,0.8155226707458496,-1.7215211391448977,-0.632746696472168,-1.3253512382507324,0.133480504155159,0.5321587324142456,-0.8360562324523926,0.2556949257850647,0.0887213945388794,0.062328815460205,0.5074237746957208,-0.087984677418649,0.2724528889648991,-0.8127417623858045,-0.5611482598524205,0.1583187905194898,-1.9796382417175804,560,2.262865289660862,0
1761072567856567552,0.8255677223205566,-1.5272445678710938,-0.6914052367210388,-1.360291600227356,0.1207148656249046,0.5475118160247803,-0.828045129776001,0.2474797368049621,0.2009470462799072,0.0163385868072509,0.501365993057131,-0.0964076728474712,0.2769169663933257,-0.8140360221804951,-0.5793878922232953,0.1447631684864644,-1.9943132907764416,570,2.158914173631305,0
1761072567866613504,0.8356137275695801,-1.378499150276184,-0.6335667967796326,-1.3180540800094604,0.1075199097394943,0.5613248348236084,-0.8205814361572266,0.2306301146745681,0.1744844913482666,-0.1085262298583984,0.4958156239452709,-0.1047300334293531,0.2806080842064931,-0.8151426703823431,-0.595985738518333,0.1302866977975549,-2.008588910194053,580,2.0097097678827534,0
1761072567876659712,0.8456597328186035,-1.1633002758026123,-0.478344976902008,-1.2664729356765747,0.0956553146243095,0.5733951926231384,-0.8136756420135498,0.191118374466896,0.1066280007362365,-0.3388512134552002,0.4902079050203859,-0.1119209954661892,0.2839645658969306,-0.8164153487253627,-0.6106439743948248,0.1170223951543811,-2.023186923770711,590,1.7849468186506448,0
1761072567886705664,0.855705738067627,-0.9477880597114564,-0.5571318864822388,-1.4167441129684448,0.083716869354248,0.5829532146453857,-0.8081813454627991,0.1586689949035644,0.0146725177764892,-0.2523350119590759,0.4844306014039517,-0.1182983869998762,0.2862076658986017,-0.8181795189683467,-0.6223586763075009,0.1032186042335834,-2.039211823146819,600,1.7932824726455145,0
1761072567896751616,0.8657517433166504,-1.1700738668441772,-0.5656643509864807,-1.354771375656128,0.0708440318703651,0.5925571918487549,-0.8024070262908936,0.2251307070255279,-0.0595982670783996,-0.1747810244560241,0.4781778756521366,-0.1249713412081786,0.2884070959693166,-0.8200910447859631,-0.6342297279594661,0.088061054841833,-2.056905703043261,610,1.8773530547411266,0
1761072567906796800,0.8757967948913574,-1.142629623413086,-0.4706901013851166,-1.2126893997192385,0.0590084046125412,0.6028317809104919,-0.7956832051277161,0.2872287929058075,-0.0332364439964294,-0.2619034051895141,0.4723055206214426,-0.1315648240535785,0.2912886607573812,-0.8214432715788974,-0.6470455854192153,0.0740251666953468,-2.073137625736665,620,1.7314061360739337,0
1761072567916842752,0.8858428001403809,-1.049307107925415,-0.4484343230724334,-1.2057301998138428,0.0480617322027683,0.6121379137039185,-0.7892890572547913,0.2507816553115845,-0.0439006686210632,-0.2882407903671264,0.4663707901335032,-0.1374478307666609,0.2940468793395747,-0.8228868248516694,-0.6587614191246719,0.0608173417828012,-2.0895739330031393,630,1.660097606647079,0
1761072567926888704,0.8958888053894043,-1.0809704065322876,-0.4484786093235016,-1.1561853885650637,0.0372002907097339,0.6210137605667114,-0.7829163670539856,0.2037512511014938,-0.0246545076370239,-0.2586485743522644,0.4604837999160202,-0.1431945538943287,0.2967105431026327,-0.824264958185272,-0.6700354223040318,0.0474793167445458,-2.106125120086297,640,1.6451123777878118,0
1761072567936934656,0.9059348106384276,-1.046675205230713,-0.4177225530147552,-1.0641719102859497,0.0267866142094135,0.6298164129257202,-0.776282012462616,0.181083858013153,0.0428062677383422,-0.242211639881134,0.4547538271187311,-0.1487944256248038,0.2995316515834857,-0.825433193305397,-0.6813168231888523,0.0344926064907775,-2.122254704835561,650,1.549994506823675,0
1761072567946980608,0.9159808158874512,-0.8478164076805115,-0.3930070996284485,-0.9768889546394348,0.0171881802380085,0.637467622756958,-0.770285427570343,0.1821373701095581,0.1229693889617919,-0.2641993761062622,0.4494395095246003,-0.1538150746419804,0.3019903889675925,-0.8265270648653866,-0.6912069880129164,0.0223103373102422,-2.1374666175037644,660,1.3518725055223144,0
1761072567957025536,0.9260256290435792,-0.3841476142406463,-0.4143121242523193,-0.9165262579917908,0.0080005545169115,0.6424714922904968,-0.7662678360939026,0.1914623379707336,0.1860806941986084,-0.3002757430076599,0.4449174230601319,-0.1580871454315538,0.3031081447596176,-0.827757483019877,-0.6977191473352884,0.0104405578569724,-2.151407928297167,670,1.0766820827977424,0
1761072567967071488,0.9360716342926024,0.0467968694865703,-0.3620627820491791,-0.829303503036499,-0.0006653424934484,0.6436361074447632,-0.7653313279151917,0.189248725771904,0.185556948184967,-0.3259162306785583,0.4412952449044851,-0.161207939455362,0.3022355566003507,-0.8294119115277236,-0.6992398883187821,-0.0008693520005233,-2.163981764623213,680,0.9061035841930783,0
1761072567977117440,0.946117639541626,0.2543897330760956,-0.3438470363616943,-0.7426250576972961,-0.0085097905248403,0.6423774361610413,-0.7663412094116211,0.1922866404056549,0.1877617239952087,-0.2533273696899414,0.4380586860687912,-0.16331743234214,0.3002612615130297,-0.8314296097216767,-0.6975963911093035,-0.0111039849097297,-2.175800879406556,690,0.856992938727712,0
1761072567987163648,0.9561636447906494,0.1702300608158111,-0.3679999709129333,-0.6579638719558716,-0.0156943816691637,0.6406393051147461,-0.7676815986633301,0.2075583785772323,0.1781930923461914,-0.1884646415710449,0.435411564124011,-0.1651986403465361,0.2981083751388146,-0.8332212916257772,-0.695330553688002,-0.0204410200563568,-2.185929462956701,700,0.7728639653887591,0
1761072567997208576,0.9662086963653564,0.2672207653522491,-0.3082351684570312,-0.6001743078231812,-0.0223810691386461,0.6388326287269592,-0.769020140171051,0.1482050418853759,0.0061258673667907,-0.272727906703949,0.4331411795307926,-0.1669786045778807,0.2959866035140251,-0.83480468254889,-0.6929799467889927,-0.0290951453109124,-2.194865828247866,710,0.7256893662444082,0
1761072568007254528,0.97625470161438,0.1534006893634796,-0.27386674284935,-0.6911905407905579,-0.0286373253911733,0.6368891000747681,-0.770423412322998,-0.0143619552254676,-0.2406030297279358,-0.1942677497863769,0.4309456972315024,-0.1685561168893578,0.2938998635621592,-0.836359704784816,-0.6904563484872791,-0.0371537863812671,-2.2033881035332628,720,0.7591305078933704,0
1761072568017300480,0.9863007068634032,-0.290329098701477,-0.3501063883304596,-0.8958590030670166,-0.0361359342932701,0.6369949579238892,-0.7700205445289612,-0.1148955672979354,-0.2652603387832641,0.0364695191383361,0.4278343577125271,-0.1710738651697559,0.2927856752051202,-0.837835388186715,-0.6905936939855141,-0.0468941264822327,-2.2142129884713113,730,1.0047033502874565,0
1761072568027346688,0.9963467121124268,-0.9283059239387512,-0.3482729196548462,-0.9129334092140198,-0.0447908528149127,0.6413767337799072,-0.7659175992012024,-0.0465787872672081,-0.1870310306549072,0.1153438687324523,0.4238751385996617,-0.1752212305213986,0.2938345316111154,-0.838623145806655,-0.6962913418974965,-0.0584134626638,-2.226814892259993,740,1.347773469335193,0
1761072568037392640,1.0063927173614502,-1.1400529146194458,-0.2184739410877227,-0.8379598259925842,-0.0526935644447803,0.6491662263870239,-0.7588192224502563,0.0657245740294456,-0.1364556550979614,-0.0201877355575561,0.4193503300127961,-0.1799084730470684,0.2970241436044122,-0.8387818062828438,-0.7064878169538307,-0.0693302286766122,-2.239946379984439,750,1.4316522556278173,0
1761072568047437568,1.0164377689361572,-0.868613064289093,-0.1309200972318649,-0.8439956903457642,-0.0590458251535892,0.6563851833343506,-0.7521117329597473,0.041360892355442,-0.0625131726264953,-0.1713043451309204,0.4147158240376993,-0.1836400609664862,0.3003672064842634,-0.8390867744620698,-0.7160172279402606,-0.0783460269566845,-2.2528485127669504,760,1.2181779232259597,0
1761072568057483776,1.0264837741851809,-0.5712940692901611,-0.0821275115013122,-0.9196147918701172,-0.0655102953314781,0.6612854599952698,-0.7472683191299438,-0.0440630540251731,0.0789794325828552,-0.2097171545028686,0.4102054245294346,-0.1867385893318215,0.3024806521563518,-0.8398604383516078,-0.7225310701292436,-0.0874428142021973,-2.2659676838753975,770,1.0857316460239281,0
1761072568067529728,1.036529779434204,-0.2453278005123138,-0.062290858477354,-1.0384533405303955,-0.072530061006546,0.6637263894081116,-0.7444505095481873,-0.0551707372069358,0.1702579855918884,-0.1149549484252929,0.4055672362283841,-0.1892878671490672,0.3032240765763986,-0.8412730404499105,-0.7257897937455108,-0.0971211178833692,-2.2800649193268128,780,1.0688550983238059,0
1761072568077575680,1.0465757846832275,0.0302646327763795,-0.0189612284302711,-1.0801994800567627,-0.0800200626254081,0.6635341644287109,-0.743854284286499,-0.0557373911142349,0.1281681060791015,-0.1195185184478759,0.4007327193161097,-0.1911797108786397,0.3025279621575744,-0.8434100155176651,-0.7255328111478017,-0.1071628031186912,-2.2951859925811733,790,1.0807897079892899,0
1761072568087620608,1.0566205978393557,-0.0280904173851013,0.0257200896739959,-1.1048126220703125,-0.0871482342481613,0.6625162363052368,-0.7439606189727783,-0.0475410893559455,0.0841878652572631,-0.1233336925506591,0.3959924506057938,-0.1926939929575661,0.3014775463967383,-0.845677369120401,-0.7241730034773796,-0.1166094872524294,-2.30994473024465,800,1.105468916092889,0
1761072568097666560,1.066666603088379,-0.1671178191900253,0.0155366938561201,-1.118531346321106,-0.09446731954813,0.6622512340545654,-0.7433028817176819,-0.0529173016548156,0.0008804202079772,-0.0993179082870483,0.3912272824207684,-0.1945563093356218,0.3008261857997302,-0.8476983987213798,-0.7238192959584624,-0.1264135747026793,-2.3247251999458265,810,1.1310535473839045,0
1761072568107712512,1.0767126083374023,-0.4432525038719177,0.0587752759456634,-1.0763200521469116,-0.10151918977499,0.6633230447769165,-0.7414150834083557,-0.0761541351675987,-0.1314169764518737,-0.073083758354187,0.3865406625915261,-0.1967483864666508,0.3009693092868754,-0.8492901709325533,-0.7252506799145534,-0.1360800157765512,-2.339060108982279,820,1.1655008236396678,0
1761072568117758464,1.0867586135864258,-0.7303042411804199,0.0995261743664741,-1.0772383213043213,-0.1080280989408493,0.6667260527610779,-0.7374322414398193,-0.1008036956191062,-0.0635918974876403,-0.0438482761383056,0.381473405839009,-0.1992631518139257,0.3026186944711406,-0.8504082749312871,-0.7298073572920726,-0.1454576187258242,-2.353903542808644,830,1.3052555860660726,0
1761072568127804416,1.0968046188354492,-0.6545072793960571,0.0815448388457298,-1.114549160003662,-0.1147504150867462,0.6706637144088745,-0.7328318357467651,-0.0989336520433425,0.0190793275833129,-0.0778371095657348,0.3761769538096884,-0.2019748453061297,0.3046149286062311,-0.8514145492035825,-0.7351032260814756,-0.1553236644789716,-2.369431358510026,840,1.2950865490729464,0
1761072568137849600,1.1068496704101562,-0.6286447644233704,0.1010732650756836,-1.0586907863616943,-0.1214830726385116,0.674065113067627,-0.7286138534545898,-0.0993268713355064,0.004615306854248,-0.0953607559204101,0.370796780287098,-0.2045047600979594,0.3063835430451376,-0.8525355041769105,-0.7396983337076121,-0.1652120167706566,-2.385258263353061,850,1.2354093353529092,0
1761072568147895552,1.1168956756591797,-0.5659444332122803,0.0789876729249954,-1.0011334419250488,-0.1277277469635009,0.6771035194396973,-0.7247181534767151,-0.0949895232915878,0.0010581016540527,-0.0300883650779724,0.3656900787243338,-0.2067805920187915,0.3080303705270987,-0.8535981318575732,-0.7438194356398997,-0.1744531503461085,-2.4002757746192627,860,1.1527360159632258,0
1761072568157941504,1.1269416809082031,-0.6451814770698547,0.0763713866472244,-0.8753057718276978,-0.1336375176906585,0.6802119612693787,-0.7207306623458862,-0.0771931707859039,-0.0211543440818786,-0.0209990739822387,0.3610045644883284,-0.2090639622798677,0.3097207064290721,-0.8544244009217925,-0.7480517403787174,-0.1833373538983259,-2.4142010707996335,870,1.090069686417956,0
1761072568167987712,1.1369876861572266,-0.5508400797843933,0.0903919264674186,-0.7676070928573608,-0.1385838687419891,0.6835742592811584,-0.7166036367416382,-0.0895960628986358,0.0680736899375915,-0.0956522226333618,0.3568617113343924,-0.2111289574287529,0.311645235249101,-0.8549570406098185,-0.7526485180645176,-0.1910316511741378,-2.4264374988416857,880,0.9491133456401806,0
1761072568178033664,1.14703369140625,-0.3506867289543152,0.0935773327946662,-0.7739006876945496,-0.1432081758975982,0.6856527924537659,-0.7137028574943542,-0.1071275323629379,0.0936135649681091,-0.1314967274665832,0.3530536997428057,-0.2127638081085601,0.3128580173996874,-0.8556895621035979,-0.755500082857111,-0.1980254685999842,-2.4377530051740286,890,0.8547866245395618,0
1761072568188078592,1.157078742980957,-0.2354112416505813,0.134148970246315,-0.754940927028656,-0.1477076113224029,0.6865679621696472,-0.7119037508964539,-0.0984929800033569,0.1046155095100402,-0.1401622891426086,0.3494270940120313,-0.2140537529579421,0.3134152437558687,-0.8566520281095178,-0.7567580821353759,-0.2045798601851969,-2.44856615352375,900,0.8020911433350337,0
1761072568198124544,1.1671247482299805,-0.226823091506958,0.1740785390138626,-0.6932640075683594,-0.151562213897705,0.6871415376663208,-0.7105388045310974,-0.0770297199487686,0.0832899808883667,-0.1764393448829651,0.3459490341229949,-0.2149647216342284,0.3138801771520327,-0.8576646770262872,-0.7575472831231398,-0.2101564677544103,-2.458691129063257,910,0.7499113526115717,0
1761072568208170752,1.177170753479004,-0.3004631102085113,0.2074824273586273,-0.7249407172203064,-0.1550313085317611,0.6878135204315186,-0.709138810634613,-0.0527475923299789,-0.0140464901924133,-0.1331005692481994,0.3424928535715948,-0.2157155439375392,0.3144795821774362,-0.8586431044059922,-0.7584725812968632,-0.2152328075903977,-2.468572791396079,920,0.8117056620122175,0
1761072568218216704,1.1872167587280271,-0.5836830735206604,0.2713719606399536,-0.7798728942871094,-0.1585873067378997,0.6897446513175964,-0.7064718008041382,-0.007153645157814,-0.0972916483879089,-0.0494943857192993,0.33845630833329,-0.2166745187723752,0.3159371178343571,-0.8594668473042636,-0.7611363571198752,-0.2208174554944498,-2.4799413259219634,930,1.0112024538043063,0
1761072568228262656,1.1972627639770508,-0.639248251914978,0.3694715201854706,-0.9141276478767396,-0.1621471792459488,0.6928797364234924,-0.7025852203369141,0.0218120962381362,-0.1178523302078247,-0.0928554534912109,0.3336899809898033,-0.2177194830682174,0.3182854442993941,-0.8601997862379461,-0.7654752573829307,-0.2268152405415269,-2.493134279315793,940,1.175064631591462,0
1761072568238307840,1.2073078155517578,-0.485515683889389,0.4497892558574676,-1.0248112678527832,-0.1661222875118255,0.6952357888221741,-0.6993215680122375,0.0421903729438781,-0.2068324089050293,-0.1573526263236999,0.3282023997171704,-0.21848093729196,0.320320595410077,-0.8613617782844213,-0.7687478637749782,-0.2332250145852785,-2.5082009645013703,950,1.2199483549336934,0
1761072568248353536,1.217353582382202,-0.3912949860095978,0.5048075914382935,-0.9100136160850524,-0.1696269214153289,0.6966353058815002,-0.6970838308334351,0.0689342021942138,-0.220133900642395,-0.1818071007728576,0.322760629216334,-0.218725228730299,0.3218964902668297,-0.8627672939772317,-0.7706968039772835,-0.2386986900289827,-2.5228395982063927,960,1.1117856141856557,0
1761072568258399488,1.2273995876312256,-0.3118006885051727,0.4467314779758453,-0.7046282291412354,-0.1718891412019729,0.697756826877594,-0.6954059600830078,0.0511768907308578,-0.0711852312088012,-0.1045054793357849,0.3180877811259238,-0.2185098299743751,0.3233426354333017,-0.8640156532557871,-0.7722612188849189,-0.2423210165984937,-2.535005409898604,970,0.8906680773832057,0
1761072568268445440,1.237445592880249,0.046301357448101,0.3546414077281952,-0.7266924977302551,-0.1738888323307037,0.6977732181549072,-0.694892168045044,-0.0121768116950988,0.080852210521698,-0.0247275233268737,0.3140863071460933,-0.2180859922667893,0.3240253129657471,-0.865329912106778,-0.7722841530853446,-0.2452031983655636,-2.5453397741338764,980,0.8099360036659746,0
1761072568278491392,1.2474915981292725,0.0529715120792388,0.2569588124752044,-0.6204882860183716,-0.1765314638614654,0.6961020827293396,-0.6959012150764465,-0.0848820954561233,0.1145820617675781,0.0698789358139038,0.3106143999136269,-0.2177306962343405,0.3234852925049041,-0.8668732595137303,-0.7699538118848825,-0.248432749668113,-2.554563472405323,990,0.6736761280367923,0
1761072568288536576,1.2575366497039795,-0.0512874163687229,0.1554959863424301,-0.3308517932891845,-0.1783892810344696,0.695313036441803,-0.6962162256240845,-0.1608441323041916,0.1114954352378845,0.1183506250381469,0.3082371533140699,-0.2176194788840758,0.3233166292627071,-0.8678121935664194,-0.7688553744262429,-0.2508305680407517,-2.560935048102537,1000,0.3691507957042125,0
1761072568298582528,1.267582654953003,-0.194938063621521,0.1174346283078193,-0.2942133545875549,-0.1793919950723648,0.695625364780426,-0.6956464052200317,-0.2551630735397339,0.1274947524070739,0.1682416200637817,0.3066486681249973,-0.2176530372463817,0.3237343631336747,-0.8682107637963852,-0.7692899981944675,-0.2523795128756292,-2.565175176793666,1010,0.3719586517235029,0
1761072568308628480,1.2776286602020264,-0.4607109427452087,0.0257319398224353,-0.3580645024776459,-0.1812593936920166,0.697252631187439,-0.6935299634933472,-0.2996976375579834,0.1452614068984985,0.2184323072433471,0.3046426829332154,-0.2183615168591708,0.3248896086388186,-0.8683074856021893,-0.7715576330070106,-0.2556393613586059,-2.571032165668872,1020,0.5840606932731978,0
1761072568318674688,1.2876746654510498,-1.060023069381714,0.0759327933192253,-0.1955466866493225,-0.1829307079315185,0.7018482685089111,-0.6884368658065796,-0.260520190000534,0.080988585948944,0.1594604849815368,0.3024894615851531,-0.2197365267033736,0.3278680223113097,-0.8675934669600355,-0.777988894297009,-0.2597173764162229,-2.5775964719855797,1030,1.0805800309936413,0
1761072568328719616,1.2977197170257568,-1.782204031944275,0.1564724892377853,-0.0969621613621711,-0.1830763816833496,0.7114846706390381,-0.678433895111084,-0.217863529920578,0.0524618029594421,0.0724616646766662,0.3001045224793846,-0.2216227635338982,0.3341652352666492,-0.8655369355651067,-0.7916087938242418,-0.2635733849647987,-2.5847464044712054,1040,1.7916853831247055,0
1761072568338765568,1.3077657222747805,-2.1064627170562744,0.2807550132274627,-0.0939368084073066,-0.1822483837604522,0.7246198654174805,-0.6646139025688171,-0.2028224170207977,0.057286262512207,-0.0681894421577453,0.2968059250652612,-0.2236513318545979,0.3430351805710279,-0.8626779337050643,-0.8104826006616134,-0.2676380625244856,-2.594235585181538,1050,2.1271654095942343,0
1761072568348811520,1.3178117275238037,-2.081791639328003,0.3257137835025787,-0.1321467757225036,-0.1810176074504852,0.7384421229362488,-0.6495659351348877,-0.1815159618854522,0.1004555821418762,-0.1206824779510498,0.2931341828173784,-0.225549863185631,0.352624870661307,-0.8595669498001502,-0.8307571157895788,-0.2717793610434529,-2.6047411093969317,1060,2.11125760357977,0
1761072568358857728,1.3278577327728271,-1.826108694076538,0.2427134215831756,-0.0920185297727584,-0.1799643486738205,0.7508218884468079,-0.6355149149894714,-0.1305672526359558,0.1435109972953796,-0.1278822422027588,0.2898083135754007,-0.2272999434229757,0.3613547625874183,-0.8566029052729643,-0.8493055602446954,-0.2759539585807786,-2.614533873276508,1070,1.8444647400858796,0
1761072568368903680,1.3379037380218506,-1.518387794494629,0.1265975385904312,-0.0391720980405807,-0.1792835146188736,0.7614734172821045,-0.6229091286659241,-0.0660015344619751,0.126084566116333,-0.0924839377403259,0.2872393631979876,-0.2290914431190507,0.3688665759669839,-0.853784659972736,-0.8655831809519453,-0.2802421290562611,-2.6226646207781323,1080,1.5241597306425332,0
1761072568378948608,1.3479487895965576,-1.5065609216690063,0.0426895841956138,-0.0043097198940813,-0.1788758933544159,0.770699679851532,-0.6115760803222656,-0.0105466842651367,0.0570132732391357,0.0561714768409729,0.2850400528840603,-0.2307923004552212,0.3754289056499891,-0.8511991906747307,-0.8799384493066328,-0.2845466918332465,-2.629984588763184,1090,1.5071717835019756,0
1761072568388994816,1.357994794845581,-1.3356504440307615,-0.0561090968549251,0.0029297289438545,-0.1790593415498733,0.7796303629875183,-0.600095272064209,0.0182164311408996,-0.0161873698234558,0.1571021080017089,0.2833187172762152,-0.2329844530614085,0.3816681907871141,-0.8483974367522092,-0.8940753189129333,-0.2899743520083191,-2.6367594380460164,1100,1.336831673286181,0
1761072568399040768,1.3680408000946045,-1.4124152660369873,-0.0937654003500938,-0.0125139420852065,-0.1794496476650238,0.7877745032310486,-0.5892444849014282,0.0349489450454711,-0.1033415794372558,0.1668354868888855,0.2819436955913719,-0.2352440617875587,0.3873473585017566,-0.8456535332193984,-0.9071875412276552,-0.2956184640039924,-2.6428827084435773,1110,1.4155795395468453,0
1761072568409086720,1.378086805343628,-1.4172757863998413,0.0008816523477435,0.0226677469909191,-0.1797562688589096,0.7962169647216797,-0.5776903629302979,0.0352403074502944,-0.0656414628028869,0.1324236989021301,0.2803958214118792,-0.2375276568763529,0.3933642478052275,-0.8427474587553523,-0.921016401223077,-0.3016670019576395,-2.649714440885249,1120,1.4174573216784325,0
1761072568419132672,1.3881328105926514,-1.379567265510559,0.0253113619983196,-0.0283988993614912,-0.1796054989099502,0.8042857646942139,-0.5664505958557129,0.0511417388916015,-0.0298411846160888,-0.0084700584411621,0.2787268537535964,-0.2394188926061973,0.3993160171874121,-0.8399623180157363,-0.9344725626031484,-0.307044458643828,-2.6566087517250283,1130,1.3800916645641461,0
1761072568429177600,1.3981776237487793,-1.3505630493164062,-0.0043245274573564,-0.0634617209434509,-0.1799778789281845,0.8119363784790039,-0.55530846118927,0.0962376147508621,-0.0077370405197143,-0.0096177458763122,0.2767664975761751,-0.2413735994772425,0.4050735312000114,-0.8372900893924179,-0.947461628019299,-0.3134216003534942,-2.6647619579363546,1140,1.3520601472351974,0
1761072568439224320,1.40822434425354,-1.265777587890625,-0.0269483476877212,-0.043102391064167,-0.18050317466259,0.8190953135490417,-0.5445194244384766,0.1178506165742874,-0.037585973739624,-0.0503596663475036,0.2748047654612111,-0.2432855458008577,0.410551365572041,-0.8347107365264593,-0.9598322001222244,-0.3200913362575538,-2.673154207291547,1150,1.2667979047838513,0
1761072568449270272,1.4182703495025637,-1.1742274761199951,-0.0368197858333587,-0.0431260913610458,-0.1810183376073837,0.8256903886795044,-0.5342917442321777,0.0915102958679199,-0.0605842471122741,-0.0196174979209899,0.2732030716365435,-0.2452070176964189,0.4156051538864332,-0.8321693803727849,-0.9714249295202648,-0.3266629463833551,-2.680717321763361,1160,1.175595900834989,0
1761072568459316224,1.428316354751587,-1.008070468902588,-0.0920958220958709,-0.061644647270441,-0.1817479878664016,0.8314760327339172,-0.5249906778335571,0.063522920012474,-0.0308321714401245,-0.027560532093048,0.2715349693044359,-0.2469594152858196,0.4201377356369483,-0.8299180659878337,-0.9817592532235632,-0.3332790856766626,-2.6885119150319743,1170,1.0141438622099406,0
1761072568469361408,1.438361406326294,-0.7010186910629272,-0.2348186671733856,-0.0322856940329074,-0.1829937547445297,0.8358955383300781,-0.5174860954284668,0.0750073194503784,-0.0372505784034729,0.0048823952674865,0.2703510000797702,-0.2487744129766518,0.4235188877858817,-0.8280418713822612,-0.989762365764329,-0.3398966686016926,-2.6951202292453234,1180,0.7400063362646644,0
1761072568479407360,1.4484074115753174,-0.3126815557479858,-0.3565802574157715,-0.0154598429799079,-0.1846635639667511,0.8385385274887085,-0.5125938653945923,0.1466081291437149,-0.0177224874496459,0.0601555109024047,0.2701478521823276,-0.2506805145547017,0.4252791340063641,-0.8266299589285674,-0.9945953260007542,-0.3457796671424022,-2.6988798929025757,1190,0.4745084214517609,0
1761072568489453312,1.4584534168243408,0.0005524116568267,-0.5362428426742554,-0.0648546442389488,-0.187309592962265,0.839016318321228,-0.5108490586280823,0.1932452470064163,0.0159946680068969,0.073867917060852,0.2706628693404091,-0.2527028133378592,0.4251079216581179,-0.8259335371201775,-0.9954728046032296,-0.351441801267739,-2.700595519784981,1200,0.5401507348484915,0
1761072568499499264,1.4684994220733645,0.1966215223073959,-0.5485144257545471,-0.0929091796278953,-0.1907532215118408,0.838316798210144,-0.5107232928276062,0.1955444812774658,-0.023344874382019,0.0524560213088989,0.2714859399900833,-0.2548990116447998,0.4238689211424072,-0.8256252657591363,-0.9941884100121652,-0.3574516626495693,-2.7016158699706008,1210,0.5900510265684206,0
1761072568509545216,1.4785454273223877,0.0932920724153518,-0.5292154550552368,-0.1477066427469253,-0.1945197582244873,0.8373324275016785,-0.5109173059463501,0.1341254562139511,-0.1129824519157409,0.0764385461807251,0.2722158375166732,-0.2571287044003023,0.4224052115639317,-0.8254436997461108,-0.9923854162472846,-0.3637816756019709,-2.702979096982415,1220,0.557305715883518,0
1761072568519590144,1.4885902404785156,0.0300126988440752,-0.4543739557266235,-0.1220891699194908,-0.1982481479644775,0.8368223309516907,-0.5103194713592529,0.0456450134515762,-0.1175535917282104,0.0369766354560852,0.2727495985096224,-0.2594251149979036,0.4213536063088839,-0.8250862733139064,-0.9914530060217144,-0.3705347559291855,-2.705075313578268,1230,0.47144694202656046,0
1761072568529636096,1.498636245727539,0.0255899541079998,-0.3545357286930084,-0.0709697008132934,-0.2010779976844787,0.83649742603302,-0.5097447037696838,-0.018556997179985,-0.07075035572052,-0.0052089095115661,0.2733018053385608,-0.2612701384293067,0.4205538853627279,-0.8247292984598558,-0.9908597810960638,-0.3757283943460706,-2.7063449047181636,1240,0.36247362263295846,0
1761072568539682048,1.5086822509765625,0.0309018939733505,-0.2647722959518432,-0.1306697875261306,-0.2034309655427932,0.8361887335777283,-0.5093175172805786,-0.0471946597099304,0.0245290398597717,0.0105839967727661,0.2735446746927537,-0.2626801070902786,0.4199290435658686,-0.8245193740292867,-0.9902967274926516,-0.3800052003772345,-2.707894029329823,1250,0.2968735237889609,0
1761072568549728256,1.518728256225586,0.2186186909675598,-0.2203551977872848,-0.1720791906118393,-0.2059666812419891,0.8353089094161987,-0.5097418427467346,-0.0707056820392608,0.0422850847244262,-0.0795830488204956,0.2735194166218662,-0.2638364513349917,0.4189503539976632,-0.8246563226886741,-0.988694407927316,-0.3840021248469157,-2.709865674549478,1260,0.3549109649952626,0
1761072568559774208,1.5287742614746094,0.3737731277942657,-0.2189250737428665,-0.166117712855339,-0.2084802389144897,0.833401620388031,-0.5118376612663269,-0.0684820562601089,-0.0043458342552185,-0.1709932088851928,0.2736761998479857,-0.2646635253804583,0.4171742940836607,-0.8252394853232577,-0.9852343214016912,-0.3867982689929046,-2.7106289093287916,1270,0.4639284788614694,0
1761072568569819136,1.5388193130493164,0.3932559192180633,-0.2395817786455154,-0.1660102903842926,-0.2110110074281692,0.8310545086860657,-0.5146094560623169,-0.0404386073350906,-0.0209348797798156,-0.1424034833908081,0.2740395802210292,-0.2654334676731637,0.4150184743191099,-0.8259583514374078,-0.9810009423872116,-0.3891323565939273,-2.7105816129688143,1280,0.48949878771297256,0
1761072568579865344,1.5488653182983398,0.2110568135976791,-0.3165865540504455,-0.187139019370079,-0.2138736993074417,0.82906174659729,-0.516637921333313,-0.0018855929374694,-0.0275022983551025,0.0189419984817504,0.2742441065751391,-0.2664662147174318,0.413130476027765,-0.8265042026102036,-0.9774275782321498,-0.3924929733771622,-2.7114729238886905,1290,0.4240200907295973,0
1761072568589911296,1.5589113235473633,0.0079733431339263,-0.4089280664920807,-0.1044420003890991,-0.2170302122831344,0.8281905055046082,-0.5167190432548523,0.045765534043312,-0.0313002467155456,0.0329238176345825,0.2744671463760657,-0.268129185110217,0.4120039139509002,-0.8264547612618297,-0.9758712600876988,-0.3976415036414596,-2.7133689165377426,1300,0.42213015671823245,0
1761072568599957248,1.5689573287963867,-0.1409002989530563,-0.4435430467128753,0.0154537763446569,-0.2195694297552108,0.8285561203956604,-0.5150572061538696,0.0649826675653457,-0.0496560335159301,-0.0573609471321105,0.2750266608160933,-0.2700808627306425,0.4117374338937363,-0.8257656133539668,-0.97652392531719,-0.4029721305764421,-2.7147303960374507,1310,0.4656416516332181,0
1761072568610002176,1.5790023803710938,0.0404963977634906,-0.3763541579246521,0.0160280428826808,-0.2214502990245819,0.8288486003875732,-0.5137798190116882,0.0173334777355194,-0.0602786540985107,-0.1204670071601867,0.2758653091251803,-0.2717495666991316,0.4114149567604298,-0.8250988895792329,-0.9770465355511404,-0.4069600951681874,-2.7147351233377552,1320,0.3788658186979156,0
1761072568620048384,1.5890483856201172,0.1597418338060379,-0.3286742568016052,-0.0512593872845172,-0.2234966605901718,0.8282690048217773,-0.5138285756111145,-0.0617664158344268,-0.0688543319702148,-0.111705482006073,0.276642051718832,-0.2731392641346281,0.4104639551519044,-0.8248536503237106,-0.9760113397457608,-0.4102794377941875,-2.714407976370902,1330,0.36901455978943093,0
1761072568630094336,1.5990943908691406,0.2801359593868255,-0.2098536491394043,-0.0205799471586942,-0.2251835763454437,0.8270482420921326,-0.515056848526001,-0.1125544607639312,-0.03613942861557,-0.2010228633880615,0.2773782688908747,-0.2740338342040948,0.4091173681692582,-0.8249786116410623,-0.9738361599336268,-0.4121597586395288,-2.7133488303856623,1340,0.35062550395508313,0
1761072568640140288,1.609140396118164,0.2778102159500122,-0.1467982530593872,-0.0495817698538303,-0.2262930274009704,0.8254998922348022,-0.5170506238937378,-0.1362558007240295,-0.0125879049301147,-0.1570674180984497,0.27811341530578,-0.2744471370214744,0.407619249485171,-0.8253352358152475,-0.9710873782958104,-0.4125457706657069,-2.7114934150177317,1350,0.31809840472614526,0
1761072568650186240,1.6191864013671875,0.0881803631782531,-0.1307210177183151,-0.0923971459269523,-0.2276156395673751,0.8243217468261719,-0.5183482766151428,-0.1234128475189209,0.0141946077346801,-0.0696797370910644,0.2785129682654176,-0.274971331356072,0.4064684899129014,-0.8255935909901754,-0.969003042329175,-0.4137670335754813,-2.71092604987487,1360,0.18275938689710902,0
1761072568660231168,1.6292312145233154,-0.0936477556824684,-0.1086508706212043,-0.1166412308812141,-0.2290692031383514,0.8240820169448853,-0.5180889964103699,-0.0851703137159347,0.0024255514144897,-0.0471423864364624,0.2784261489624614,-0.2757102663631786,0.4061272694529043,-0.8255443555798414,-0.9685798034306584,-0.4163005239262482,-2.712341726476996,1370,0.18487858332590518,0
1761072568670277120,1.6392772197723389,-0.3065003454685211,-0.1409952491521835,-0.155383825302124,-0.2308732718229293,0.8248730301856995,-0.5160253643989563,-0.0385969579219818,-0.0678845047950744,0.012286901473999,0.2778825433985271,-0.2768501463582919,0.4066218479123002,-0.8251024942826142,-0.9699775948402088,-0.4206953606693512,-2.7159635169948797,1380,0.37143809069793865,0
1761072568680323072,1.6493232250213623,-0.3028832376003265,-0.1886975318193435,-0.1042069345712661,-0.2328447103500366,0.8262115716934204,-0.5129891633987427,0.0039628595113754,-0.0832306146621704,-0.0141867399215698,0.2773185479712604,-0.2783062712814173,0.4074935873701907,-0.8243719503527679,-0.9723493974365623,-0.4260906753845986,-2.7202407707963996,1390,0.371758119409258,0
1761072568690369024,1.6593692302703855,-0.1815052479505539,-0.2137692272663116,-0.0553329586982727,-0.2344948649406433,0.8273265361785889,-0.5104341506958008,0.0132576674222946,-0.0013072490692138,-0.0462827682495117,0.2771810002734689,-0.2796939056962649,0.4081105773981697,-0.8236430056813361,-0.9743314215537776,-0.4306457008009276,-2.72304172261621,1400,0.28583767050186504,0
1761072568700415232,1.6694152355194092,0.0565579235553741,-0.2298539131879806,-0.0431375429034233,-0.2360380291938781,0.8275364637374878,-0.5093815326690674,0.006622090935707,0.0864955782890319,-0.0720699429512023,0.277429953423991,-0.2808429820944646,0.4079662520457403,-0.8232396405381858,-0.9747053289509868,-0.4339261976345031,-2.7241037769268175,1410,0.24060853628345763,0
1761072568710460160,1.6794602870941162,0.2861456274986267,-0.185002863407135,-0.0276173502206802,-0.2373729944229126,0.8265542387962341,-0.5103549361228943,-0.0325702428817749,0.0161734223365783,-0.1230068802833557,0.2780593026867617,-0.28156673707136,0.406869399978946,-0.8233228222517253,-0.9729579437844172,-0.4353510406265656,-2.723085493248679,1420,0.341859763117325,0
1761072568720506112,1.6895062923431396,0.2060355991125106,-0.1855445504188537,-0.0369594544172287,-0.2385487854480743,0.8251944184303284,-0.5120044946670532,-0.0855936408042907,-0.0510550737380981,-0.064808189868927,0.2786925837797315,-0.2820405998750939,0.4055254041411461,-0.8236095022920379,-0.970546275563174,-0.436006876843223,-2.7216013131130774,1430,0.27972030595329495,0
1761072568730552320,1.699552297592163,0.1772667020559311,-0.1818258762359619,-0.0443939305841922,-0.2398173511028289,0.8240626454353333,-0.5132333040237427,-0.0946553200483322,-0.0602992177009582,-0.0418814420700073,0.279186359349349,-0.2825950496251449,0.4043802524198688,-0.8238152900916251,-0.96854554086607,-0.4371205978949962,-2.7207254288950464,1440,0.2577885839199937,0
1761072568740598272,1.7095983028411863,0.192178800702095,-0.2171026468276977,-0.0528638511896133,-0.2412169426679611,0.8230530619621277,-0.5141964554786682,-0.0638367682695388,-0.0806825160980224,-0.025903582572937,0.279614247054894,-0.2832466366047461,0.4033275353276205,-0.8239624608884947,-0.9667657586986406,-0.4386352194485629,-2.720228021233489,1450,0.2947216270677895,0
1761072568750644224,1.71964430809021,0.1770430505275726,-0.3022032380104065,-0.0230354703962802,-0.2428891956806183,0.8219506740570068,-0.5151718258857727,-0.0340273231267929,-0.0782983303070068,0.0090377926826477,0.2802308650410465,-0.2841185845679669,0.4021078356238255,-0.8240489647537118,-0.9648275088089748,-0.4405660329522305,-2.7194540506807323,1460,0.35100095683695925,0
1761072568760689152,1.729689359664917,0.0692944899201393,-0.3620585799217224,-0.0093502849340438,-0.2447046488523483,0.8213077187538147,-0.515338122844696,-0.0253148823976516,-0.0607333779335022,0.0451995730400085,0.2809667563924731,-0.2853222964979165,0.4011510125491137,-0.8238487809541253,-0.9636995190643672,-0.4433201722900719,-2.7188801641754767,1470,0.3687486534979814,0
1761072568770735360,1.7397353649139404,0.0025811078958213,-0.394823282957077,-0.0326914712786674,-0.2468305975198745,0.8210089206695557,-0.514799952507019,-0.0243943780660629,-0.0702918171882629,0.0371541380882263,0.2816078767388726,-0.2868096702865267,0.4004250574269959,-0.8234664698628982,-0.963176014692346,-0.4470882632381553,-2.719095566273744,1480,0.3961828103001668,0
1761072568780781312,1.749781370162964,-0.1155844181776046,-0.4336774945259094,0.0059278267435729,-0.249100312590599,0.8213033080101013,-0.5132347345352173,0.0043035745620727,-0.0546559691429138,0.0391899347305297,0.2822865818900661,-0.2886481096176048,0.4000811347195268,-0.8227585164366423,-0.9636917932259838,-0.4518619772661999,-2.719829412361053,1490,0.4488552841547344,0
1761072568790827264,1.7598273754119873,-0.0881509929895401,-0.4229081273078918,0.0090528689324855,-0.2512297630310058,0.8218813538551331,-0.5112676620483398,0.0162444412708282,-0.0224887132644653,-0.0239495635032653,0.2830622776726777,-0.2905691915335157,0.3999196190081084,-0.8218938812955843,-0.9647057503353648,-0.456732663390715,-2.720436141392363,1500,0.4320923930642828,0
1761072568800872448,1.7698724269866943,-0.0194129422307014,-0.412844568490982,-0.0093173496425151,-0.253362089395523,0.8221496343612671,-0.5097818970680237,-0.003519594669342,-0.005133032798767,-0.066161036491394,0.2838558906382646,-0.2923765815032041,0.3995309496477031,-0.8211678953490508,-0.9651768553719476,-0.4612454977127503,-2.7207587343296975,1510,0.4134057487056978,0
1761072568810918400,1.7799184322357178,0.0216114223003387,-0.4200497269630432,0.0179337989538908,-0.2554821372032165,0.8221268653869629,-0.508759617805481,0.0054516196250915,0.0007796287536621,-0.0689533948898315,0.2847485504771334,-0.2941055654856332,0.3989011071528254,-0.8205474934633004,-0.9651369215524812,-0.4653794544767249,-2.7205893040680564,1520,0.4209874675575145,0
1761072568820964352,1.7899644374847412,0.0542236939072608,-0.460111916065216,0.0536771528422832,-0.2574306428432464,0.8220325112342834,-0.507929265499115,0.0289607644081115,-0.0167346596717834,-0.079778254032135,0.2858649111812137,-0.2958090479753787,0.3981612377667678,-0.819906121184836,-0.9649712170629816,-0.4690917366158724,-2.7196495405229957,1530,0.4663951340048549,0
1761072568831010048,1.8000102043151855,0.0469915457069873,-0.4889123439788818,0.0914769917726516,-0.2592175900936126,0.821946382522583,-0.5071590542793274,0.0242933332920074,-0.0335248112678527,-0.0803805589675903,0.2872533065967774,-0.2975493395147619,0.3973472889199049,-0.8191855492634362,-0.964819946435578,-0.472501578671247,-2.717896312327057,1540,0.49961137445681725,0
1761072568841056000,1.810056209564209,0.0839884504675865,-0.4775859117507934,0.0480235256254673,-0.2610198557376861,0.8217865228652954,-0.5064932703971863,-0.0112427175045013,-0.0409179925918579,-0.0777351856231689,0.2885121139804781,-0.2992051519420322,0.3965219141454227,-0.8185397222621367,-0.9645392963596112,-0.4758497734857553,-2.7164076046674137,1550,0.4872870015999634,0
1761072568851101184,1.820101261138916,0.0654603689908981,-0.4489977657794952,-0.0009777504019439,-0.2632010579109192,0.8214734792709351,-0.5058719515800476,-0.0302712023258209,-0.0374311804771423,-0.0875728130340576,0.2894661098204522,-0.300882602261643,0.3956433730939097,-0.8180129999886434,-0.9639901608120488,-0.4797490032986027,-2.71588961097144,1560,0.45374553394964834,0
1761072568861147136,1.8301472663879397,0.1230245977640152,-0.4606642723083496,-0.0088833440095186,-0.2655781209468841,0.8209848403930664,-0.5054226517677307,0.0029438436031341,-0.0118570327758789,-0.119195818901062,0.2904451622457702,-0.3026185283000741,0.3946019405761337,-0.8175285276464463,-0.9631338390509068,-0.4838055476737096,-2.7153384175176623,1570,0.47689153613496904,0
1761072568871193088,1.840193271636963,0.1500568836927414,-0.4713433980941772,0.0446667894721031,-0.2677842080593109,0.820309579372406,-0.5053551197052002,0.0238419473171234,-0.0179566740989685,-0.1205146312713623,0.2916622042158051,-0.3042823285268782,0.3933633221501522,-0.8170744785587389,-0.9619520944628356,-0.4872751653565512,-2.713869325964839,1580,0.4966656716064521,0
1761072568881239296,1.8502392768859863,0.0993574857711792,-0.4894579648971557,0.0793424770236015,-0.2696745693683624,0.8198333978652954,-0.5051226019859314,-0.0062958896160125,0.042272925376892,-0.0716748833656311,0.2930633505137377,-0.3059238423815579,0.3922362912642219,-0.8165017739561244,-0.9611199842839556,-0.4903823865337997,-2.7118164158608926,1590,0.5057037057806439,0
1761072568891284224,1.8602843284606936,0.0918014347553253,-0.5069404244422913,0.0516268722712993,-0.271647185087204,0.8195371031761169,-0.504546046257019,-0.0399220287799835,0.103070318698883,-0.0400859117507934,0.2944124381859107,-0.3076692170602611,0.3912373249134429,-0.8158395858523692,-0.960602705169998,-0.4938930593356972,-2.710122448402984,1600,0.5177658073853311,0
1761072568901330176,1.8703303337097168,0.0783522054553031,-0.4978893995285034,0.0704146772623062,-0.2737393677234649,0.8192341923713684,-0.5039068460464478,-0.0596651434898376,0.0654703974723815,-0.0371545553207397,0.2958003904547255,-0.3095046144341111,0.3901967118115458,-0.815141419704174,-0.96007429351213,-0.4976338315566449,-2.708435309969501,1610,0.5089117301030882,0
1761072568911376128,1.88037633895874,0.0517610684037208,-0.4383464455604553,0.050769954919815,-0.2755535542964935,0.8190978765487671,-0.5031390190124512,-0.0856067240238189,0.0289398431777954,-0.0585064888000488,0.2971223490925337,-0.3112087016938648,0.3893322746885485,-0.8144248340792559,-0.9598366405136576,-0.5010516480185281,-2.7067910116299627,1620,0.44430215266228446,0
1761072568921422336,1.8904223442077637,0.0988715961575508,-0.3783462345600128,-0.0055961152538657,-0.2774404287338257,0.8187766671180725,-0.5026246309280396,-0.1054483354091644,0.0124000906944274,-0.0672758817672729,0.2982234127946244,-0.3127709054293398,0.3884096319431353,-0.8138642670614769,-0.9592769220403752,-0.5043646678572345,-2.7055868786886843,1630,0.391091782371372,0
1761072568931468288,1.900468349456787,0.1859680116176605,-0.3250533044338226,-0.0355042144656181,-0.2793720960617065,0.8179921507835388,-0.5028321146965027,-0.0862895250320434,-0.0125569701194763,-0.082250952720642,0.2991669750731124,-0.314079160602512,0.3872185857070092,-0.8135817013508484,-0.9579117611772624,-0.507130304266911,-2.7043845084920335,1640,0.3761705747572426,0
1761072568941513216,1.910513401031494,0.2794183194637298,-0.3224194347858429,-0.0233982820063829,-0.2812686264514923,0.8166849613189697,-0.5038985013961792,-0.0451626777648925,-0.0058939456939697,-0.0846177339553833,0.3000725003297253,-0.3151130403045645,0.3856870594969885,-0.8135759509761631,-0.9556429551208252,-0.5091055877317444,-2.7027593905460523,1650,0.42728956081375025,0
1761072568951559424,1.9205594062805176,0.3346755504608154,-0.3211028575897217,0.0835217759013176,-0.2826786637306213,0.815176248550415,-0.5055496692657471,-0.0139674544334411,0.0347535610198974,-0.1076247692108154,0.3013320662978864,-0.3159185606669442,0.3839539250711284,-0.8136177852114913,-0.9530334558902794,-0.5098418384269165,-2.6996220933959205,1660,0.4712649533736248,0
1761072568961605376,1.930605411529541,0.3911286890506744,-0.2967338562011719,0.1377772837877273,-0.2833040356636047,0.813615083694458,-0.5077099800109863,-0.0271665751934051,0.0538470745086669,-0.1012377738952636,0.3030049585950002,-0.3164020770367562,0.3821449069706183,-0.8136603242118082,-0.9503432065183872,-0.5089672757663194,-2.6946989960335435,1670,0.5099168684623414,0
1761072568971651328,1.9406514167785645,0.3409067392349243,-0.2672818899154663,0.1341322213411331,-0.2836548388004303,0.8120858669281006,-0.5099573731422424,-0.0561278760433197,0.0200216770172119,-0.0586156845092773,0.3046867311489723,-0.3167295806704439,0.380399391695595,-0.813722764838459,-0.9477178346299342,-0.5076156337851067,-2.689546481133863,1680,0.45348480276022357,0
1761072568981697280,1.950697422027588,0.2305850088596344,-0.2679532766342163,0.1680654287338256,-0.2838115692138672,0.810971200466156,-0.5116411447525024,-0.0458850860595703,-0.0258912444114685,-0.022462248802185,0.3062516822416265,-0.3170628798982173,0.3790125973800196,-0.8136525635312074,-0.94581017782635,-0.5064507799516204,-2.6848794571511223,1690,0.3914261017169079,0
1761072568991742208,1.960742235183716,0.1456722468137741,-0.2876175045967102,0.2097595185041427,-0.2836767435073852,0.8105481266975403,-0.512385904788971,-0.0010828077793121,-0.0467846989631652,0.0030017495155334,0.3078041278332917,-0.3175135632472257,0.378143077577115,-0.8132955397341434,-0.945087405038572,-0.5056326435087906,-2.6805781530414694,1700,0.38463396631772073,0
1761072569001788160,1.9707882404327393,0.1564029306173324,-0.2996584773063659,0.2106271684169769,-0.2834665179252624,0.8103631734848022,-0.512794554233551,0.0147745013236999,-0.0179437398910522,-0.0085677504539489,0.3094479585902006,-0.3180643418318053,0.3774093173011252,-0.8127971899211006,-0.9447717001662084,-0.5049809505038706,-2.676186846768857,1710,0.3982723738882895,0
1761072569011834112,1.9808342456817627,0.2264815270900726,-0.3094505369663238,0.1654277294874191,-0.2835170030593872,0.8099128007888794,-0.513477623462677,-0.0003727376461029,0.0073783993721008,-0.0079456567764282,0.3110725237729333,-0.3186483854404477,0.3764630143978176,-0.8123869690116876,-0.9440034499526986,-0.5044928756549982,-2.6718538366495763,1720,0.4176360264933572,0
1761072569021880064,1.990880250930786,0.3217824697494507,-0.3130892217159271,0.1221987754106521,-0.2839829623699188,0.8088400363922119,-0.5149092674255371,-0.0200026333332061,0.0036447048187255,0.0011000633239746,0.3126051038980129,-0.3191673731427826,0.3750700710575255,-0.8122393562697826,-0.9421768155660506,-0.5040097634922369,-2.667602423381487,1730,0.4652970656522606,0
1761072569031926272,2.0009262561798096,0.3199552595615387,-0.3345085084438324,0.1021947041153907,-0.2847603559494018,0.807436466217041,-0.5166797637939453,-0.0299216508865356,0.0007758140563964,0.0292224884033203,0.3141046152766584,-0.3197138330563525,0.373420931138369,-0.8122057712150582,-0.939793770914016,-0.5037143026466083,-2.663444093540368,1740,0.4740369900035664,0
1761072569041971200,2.0109713077545166,0.2971908450126648,-0.3466205596923828,0.0695496797561645,-0.2858029007911682,0.8060804009437561,-0.5182191133499146,-0.0317324697971344,0.0011399984359741,0.0471040606498718,0.3155786256742,-0.3204311055134519,0.3717719040940244,-0.8121081451314898,-0.9374988010138078,-0.5040015791176702,-2.6596299870980773,1750,0.46184994177220323,0
1761072569052017152,2.02101731300354,0.3174761533737182,-0.3605427742004394,0.0363166257739067,-0.2872466742992401,0.804581880569458,-0.5197474360466003,-0.0373993217945098,-0.0265209674835205,0.0600305795669555,0.3169520386095292,-0.3212841354725065,0.3700037788865534,-0.8120438165183352,-0.9349710468963932,-0.5048876831216436,-2.656304890694771,1760,0.4817687176402425,0
1761072569062063104,2.0310633182525635,0.3488638997077942,-0.3866044580936432,0.0236413106322288,-0.2890014052391052,0.80290287733078,-0.5213685631752014,-0.0422821342945098,-0.0358436107635498,0.0880189538002014,0.3182683922141565,-0.3222203040862899,0.3680893865074304,-0.8120280352741265,-0.9321490751536337,-0.5061485574736889,-2.6532475234055557,1770,0.5212753006863253,0
1761072569072109312,2.041109323501587,0.3825518786907196,-0.3983645141124725,0.0231045931577682,-0.290879875421524,0.8010078072547913,-0.5232354998588562,-0.0456527173519134,-0.0249763131141662,0.0942957401275634,0.3196671570878896,-0.3231712081923586,0.365981707456195,-0.8120533603118532,-0.9289767596083428,-0.507381006112361,-2.649922020056924,1780,0.5527875253828105,0
1761072569082154240,2.051154375076294,0.4024552702903747,-0.4215558469295501,0.0276181176304817,-0.2928744554519653,0.7989816069602966,-0.5252171158790588,-0.0445431768894195,-0.0118722915649414,0.1118717789649963,0.3211155012909534,-0.3241547160625183,0.3637515105421129,-0.8120920573062068,-0.9255998556534212,-0.5086788433846242,-2.646471405541928,1790,0.5834743671203045,0
1761072569092200192,2.0612003803253174,0.4260378181934356,-0.4276936054229736,0.0664984062314033,-0.2947958111763,0.7968838214874268,-0.527324914932251,-0.0547525286674499,-0.0199215412139892,0.1049768924713134,0.3227150318258741,-0.3251253667482519,0.3614291452248652,-0.8121067999884254,-0.9221194195415188,-0.5097573121660046,-2.6425316952142697,1800,0.6073319361618009,0
1761072569102246400,2.071246385574341,0.3965294361114502,-0.4260994493961334,0.1131982654333114,-0.2963534295558929,0.7949276566505432,-0.5294002294540405,-0.0772885084152221,0.000787615776062,0.0983394980430603,0.3245081749692842,-0.3260158702833317,0.3591845285944985,-0.8120311080530901,-0.9188883220525822,-0.5103290991176027,-2.6379221953737946,1810,0.5929672687220292,0
1761072569112292352,2.0812923908233643,0.3429842591285705,-0.4134979546070099,0.1108991578221321,-0.2976987957954407,0.7933017015457153,-0.5310817360877991,-0.0946046710014343,0.0609005689620971,0.1035457253456115,0.3262984121110026,-0.3269154872267961,0.3571909770862826,-0.8118313760547237,-0.916213023080788,-0.5109082571308351,-2.6333989050807487,1820,0.5485593711530351,0
1761072569122338304,2.0913383960723877,0.3459592759609222,-0.392086386680603,0.1015157774090766,-0.299040675163269,0.7917912602424622,-0.5325798988342285,-0.0970469713211059,0.0785395503044128,0.105623722076416,0.328015733011352,-0.3278273298497112,0.3553017024542556,-0.8116007000723711,-0.9137361408751222,-0.5116253221162834,-2.629141664335686,1830,0.5326584349342701,0
1761072569132383232,2.1013832092285156,0.3802157640457153,-0.3805165290832519,0.1072666049003601,-0.3003211319446563,0.7901472449302673,-0.5342981219291687,-0.0816215872764587,0.0781846046447753,0.1146509647369384,0.3297537541745042,-0.3286468749539076,0.3533301002076819,-0.8114256122160622,-0.9110492331482014,-0.5120743758869354,-2.6246857462132773,1840,0.5485097817371011,0
1761072569142429184,2.111429214477539,0.4063557386398315,-0.3736264109611511,0.119754172861576,-0.3015031516551971,0.7883588671684265,-0.5362704992294312,-0.0645093917846679,0.0943773388862609,0.1235507726669311,0.3315226949280256,-0.3293509642659866,0.351272961055378,-0.8113124435095194,-0.9081368786094118,-0.5121783699129494,-2.6199727430232773,1850,0.5648563916704796,0
1761072569152475136,2.1214752197265625,0.3915960192680359,-0.3406949043273926,0.1230813488364219,-0.302525132894516,0.7865542769432068,-0.5383408069610596,-0.0554765462875366,0.0995540618896484,0.1265671849250793,0.3333070123680199,-0.3299518106889754,0.3492297179948193,-0.81121929856137,-0.9052090715236764,-0.5119779177245324,-2.6150898334559187,1860,0.5334505399496903,0
1761072569162521088,2.131521224975586,0.3498565554618835,-0.2881480753421783,0.1082384809851646,-0.303343266248703,0.7848870158195496,-0.5403103232383728,-0.053163081407547,0.0971778035163879,0.1339840292930603,0.3349530052014005,-0.3304247383250983,0.347367711693377,-0.8111483915972694,-0.9025138053744756,-0.5115718276684958,-2.610493926948594,1870,0.46598765164865846,0
1761072569172567040,2.14156723022461,0.2741236090660095,-0.2416347563266754,0.0906631350517273,-0.3040379881858825,0.7834798097610474,-0.5419597625732422,-0.0428248047828674,0.0909403562545776,0.1446208953857422,0.3363278851775459,-0.3308176843760254,0.3458030894059531,-0.8110878900009251,-0.9002460299942828,-0.5112472472104068,-2.606661438530979,1880,0.3764982238601319,0
1761072569182612224,2.1516122817993164,0.1914199441671371,-0.2063159048557281,0.0557179301977157,-0.3047216534614563,0.7824578285217285,-0.5430511832237244,-0.0149347186088562,0.0912299156188964,0.1476653814315796,0.3374602870091955,-0.3312680787762203,0.3445807340668415,-0.810953913694398,-0.898603120798292,-0.5113472542127372,-2.6036924134797035,1890,0.28690126414309375,0
1761072569192658176,2.16165828704834,0.1549162864685058,-0.1733342856168747,-0.0001282021403312,-0.3056062161922455,0.7816157341003418,-0.54376620054245,0.0141786038875579,0.0905003547668457,0.1396829485893249,0.338242528941507,-0.3317704317512305,0.3435771741158289,-0.8108484094882847,-0.8972519681374659,-0.5120229993617724,-2.6018698270003195,1900,0.23247332496287232,0
1761072569202704128,2.1717042922973633,0.1249509304761886,-0.1687624305486679,-0.0214800965040922,-0.3066785633563995,0.7808600068092346,-0.544248104095459,0.044090062379837,0.1074303984642028,0.1364417076110839,0.3387233568550585,-0.3322971918176938,0.3427163873955499,-0.8107962997419772,-0.8960412796558465,-0.513141482776584,-2.6009954981870127,1910,0.21108028694642328,0
1761072569212750080,2.1817502975463867,0.1686137467622757,-0.1415564119815826,-0.0367106236517429,-0.30781090259552,0.7800031900405884,-0.544837236404419,0.0591994524002075,0.1238359212875366,0.0999062061309814,0.339126061988815,-0.3327828828348155,0.3418141967636943,-0.8108096048242434,-0.8946708744765883,-0.5142557707698775,-2.6002886130318243,1920,0.22319606461407937,0
1761072569222795264,2.1917953491210938,0.1611254811286926,-0.0986683443188667,-0.0657840892672538,-0.3089133501052856,0.7789347767829895,-0.5457408428192139,0.0556632578372955,0.1014057397842407,0.0933635830879211,0.3393979868815379,-0.3331022548272943,0.3408408397530539,-0.8109743079519893,-0.8929654177317875,-0.5150776096849702,-2.5997337594626737,1930,0.20006101379404517,0
1761072569232841216,2.201841354370117,0.1040209084749221,-0.0721312686800956,-0.0812028124928474,-0.3100165426731109,0.7780104279518127,-0.5464335083961487,0.056827425956726,0.0672045350074768,0.1211863160133361,0.3394475087236965,-0.3333922264238715,0.3400483281675042,-0.8111671667567006,-0.8914926911216564,-0.5160626148673002,-2.599825529972921,1940,0.15039004647281945,0
1761072569242887168,2.2118873596191406,0.0778066217899322,-0.0429227873682975,-0.0491298325359821,-0.3108936250209808,0.7773545384407043,-0.5468683838844299,0.0733906030654907,0.0252882242202758,0.0968714952468872,0.3393962773847573,-0.3336200351498263,0.3395047582036984,-0.8113225868071682,-0.8904494421051459,-0.5169342026918399,-2.6001745917751906,1950,0.1015380545157296,0
1761072569252933376,2.221933364868164,0.0626741722226142,-0.0345435850322246,-0.0168572906404733,-0.3113850057125091,0.7769082188606262,-0.5472230315208435,0.0910328328609466,0.0147177577018737,0.0830201506614685,0.3394344225883904,-0.3337412195295231,0.3391242799149198,-0.8114159687422667,-0.8897402451907891,-0.5173342615571713,-2.600150845779294,1960,0.07352196527845149,0
1761072569262979328,2.2319793701171875,0.0466797612607479,-0.0354517214000225,-0.0032567942980676,-0.3116840124130249,0.7766258120536804,-0.5474536418914795,0.09719118475914,0.036316692829132,0.0834796428680419,0.3395523885921031,-0.3338498786414143,0.3388471986299217,-0.8114376947934447,-0.8892918378386753,-0.51756572337968,-2.599895311868305,1970,0.058706314572498586,0
1761072569273024256,2.2420244216918945,0.0983278006315231,-0.0103229656815528,-0.0056125381961464,-0.3118402659893036,0.7762647271156311,-0.5478765964508057,0.0976068973541259,0.0540575385093688,0.0714972019195556,0.3397150797076309,-0.3338555349306988,0.3385294625366609,-0.8114998064652977,-0.888718797929073,-0.5174492457582534,-2.5993670123357764,1980,0.09902737289506511,0
1761072569283070208,2.252070426940918,0.1721248030662536,0.0083236899226903,-0.0373603478074073,-0.312032401561737,0.7754795551300049,-0.5488781929016113,0.0977532267570495,0.0545833110809326,0.0645337104797363,0.3398682541504791,-0.3336940046786066,0.3379485424142329,-0.8117442217578286,-0.8874742777683982,-0.5169289565820127,-2.5986022805877544,1990,0.1763293147290493,0
1761072569293116416,2.2621164321899414,0.1689004451036453,0.0399501249194145,-0.0568837150931358,-0.3122987151145935,0.7743765115737915,-0.5502822399139404,0.0979585349559784,0.0545876622200012,0.0675399303436279,0.339949297020141,-0.333410159215831,0.3371892058455968,-0.812142609124071,-0.8857291450973213,-0.5161982193256464,-2.5978603198681176,2000,0.18264481892482842,0
1761072569303162368,2.272162437438965,0.101575993001461,0.0670046508312225,-0.070624828338623,-0.312108963727951,0.773984432220459,-0.5509411692619324,0.1004543006420135,0.0659966468811035,0.0981823801994323,0.3398555742470195,-0.3330851200642582,0.3370218554281204,-0.8123846658979702,-0.8851096842359846,-0.5154239656576545,-2.5976853314118995,2010,0.14069531607380137,0
1761072569313208064,2.282208204269409,-0.0153380054980516,0.0961943939328193,-0.0958850905299186,-0.3119244873523712,0.7741700410842896,-0.5507846474647522,0.0995984673500061,0.0575407147407531,0.1260258555412292,0.3394594879655718,-0.332888709639753,0.3373318409028182,-0.8125019713897892,-0.8854028315784698,-0.5152922022351702,-2.5986454635806746,2020,0.13668418497650475,0
1761072569323253248,2.292253255844116,-0.1129881292581558,0.1297584772109985,-0.1047510206699371,-0.3114633858203888,0.7749996185302734,-0.5498782992362976,0.0917673707008361,0.0435275435447692,0.1347782611846923,0.3387755466323101,-0.3326826506571201,0.3382057233523134,-0.8125086384788044,-0.8867145210347491,-0.515364119922608,-2.600537969135441,2030,0.20143573688094307,0
1761072569333299200,2.3022992610931396,-0.169351115822792,0.180278480052948,-0.0858328938484191,-0.3101311028003692,0.7766257524490356,-0.5483348369598389,0.0765343010425567,0.0343941450119018,0.1163890361785888,0.3380304053056819,-0.3322642303959211,0.3397544117009152,-0.8123440442995294,-0.8892917485370828,-0.5147314376458728,-2.602459934851008,2040,0.2618156153995018,0
1761072569343345152,2.312345266342163,-0.1600265800952911,0.2383425831794738,-0.0664368271827697,-0.3082450330257416,0.7785043120384216,-0.5467320680618286,0.0523093938827514,0.036482810974121,0.0888311266899108,0.3372975996300916,-0.3316220939494898,0.3415563624319822,-0.8121553455410592,-0.8922792634495694,-0.5133729592339539,-2.604100416199082,2050,0.2946685346279311,0
1761072569353391104,2.3223912715911865,-0.1549646109342575,0.2883662283420563,-0.0742499232292175,-0.3060728311538696,0.7802457809448242,-0.5454685091972351,0.031658798456192,0.045285165309906,0.0813724398612976,0.336482451701053,-0.3307102075522057,0.3433606217405101,-0.8121044773285193,-0.8950586386165921,-0.5113399159700054,-2.605625226562875,2060,0.3356816399354803,0
1761072569363436288,2.3324363231658936,-0.1118347123265266,0.3176862895488739,-0.0946505367755889,-0.303975373506546,0.7816339135169983,-0.544653594493866,0.0313923060894012,0.0432410836219787,0.0742098689079284,0.33542529220163,-0.3295859716012166,0.3450308354978053,-0.8122910960729032,-0.8972810546628649,-0.5090465918464638,-2.6075537209821267,2070,0.34984325856073745,0
1761072569373482240,2.342482328414917,-0.0701632723212242,0.3340666890144348,-0.0798718556761741,-0.3020599484443664,0.7825242280960083,-0.5444406270980835,0.0456817746162414,0.0131453275680542,0.0669625997543335,0.3343076974587172,-0.3283284610077168,0.3463814532071675,-0.8126860432805326,-0.8987097233319843,-0.5065269816030187,-2.6094217706721574,2080,0.35057517142696365,0
1761072569383528192,2.3525283336639404,-0.0739713236689567,0.3492341935634613,-0.0687403753399849,-0.3000807166099548,0.7833824157714844,-0.5443010330200195,0.0567335486412048,0.0170021057128906,0.0817155838012695,0.3332411858108814,-0.3270380414418538,0.3477004374869002,-0.813081144712588,-0.9000893203595521,-0.5038513798376526,-2.6110846633223117,2090,0.3635402562043724,0
1761072569393574144,2.362574338912964,-0.0893469154834747,0.3548133671283722,-0.077879898250103,-0.2981214523315429,0.7843539714813232,-0.5439783930778503,0.0525770187377929,0.0366604328155517,0.0918452143669128,0.3321246590996279,-0.3257861467760377,0.3491048287349739,-0.8134386843297509,-0.9016539846318726,-0.5013365123041101,-2.612956429622847,2100,0.37408645438030846,0
1761072569403620352,2.3726203441619873,-0.1208316087722778,0.3710519969463348,-0.0750921070575714,-0.2961820363998413,0.7854679822921753,-0.5434301495552063,0.0362027585506439,0.0327693223953247,0.087467074394226,0.3309748374724206,-0.324591874023288,0.3506066743989685,-0.8137388052981382,-0.90345193926223,-0.4990142144890949,-2.615016030277048,2110,0.3973898421685001,0
1761072569413665280,2.3826653957366943,-0.1919806152582168,0.3852823376655578,-0.1029559597373008,-0.2943924963474273,0.7866948843002319,-0.5426271557807922,0.0150803625583648,0.011431336402893,0.1001375317573547,0.3296384675397141,-0.3234550277242332,0.3522261492307818,-0.814034461662717,-0.9054368030397588,-0.4970914033652404,-2.617723663813966,2120,0.44260475144014105,0
1761072569423711232,2.3927114009857178,-0.2612382471561432,0.3965136706829071,-0.1350933760404586,-0.2929471731185913,0.7880390882492065,-0.5414577722549438,-0.0007387995719909,-0.0056903362274169,0.1140132546424865,0.3278803216403956,-0.3223924142748797,0.3540257627828413,-0.8143853685927871,-0.9076171889511708,-0.4959336165819565,-2.621818564395065,2130,0.49367877518246195,0
1761072569433757184,2.402757406234741,-0.3016145229339599,0.4020289182662964,-0.1463524401187896,-0.2919266819953918,0.7891527414321899,-0.5403857231140137,-0.0145613253116607,0.0017102360725402,0.0975146889686584,0.3258601967609701,-0.3213707018770463,0.3557077509890012,-0.8148668599783941,-0.9094283395434474,-0.4953028512584141,-2.626735134113658,2140,0.5234669123218512,0
1761072569443802624,2.4128026962280273,-0.28516286611557,0.396310031414032,-0.1736146807670593,-0.2910400032997131,0.7903006076812744,-0.5391852259635925,-0.0249542593955993,0.0385873317718505,0.0727545619010925,0.3238740116212038,-0.3204551768957066,0.357373552025632,-0.8152903482055082,-0.9112994792129504,-0.4949609065504227,-2.6317000649870588,2150,0.5181906585307047,0
1761072569453848576,2.422848701477051,-0.2384897768497467,0.3706929683685303,-0.2009546011686325,-0.2904443144798279,0.7911571264266968,-0.5382494926452637,-0.0293493866920471,0.0624500513076782,0.0557208061218261,0.3219049318587005,-0.3195950351258274,0.3587955638059331,-0.8157830561271949,-0.9126986031697536,-0.494830523228944,-2.636653018415644,2160,0.4844310087004736,0
1761072569463893760,2.432893753051758,-0.2246517241001129,0.3400844633579254,-0.2086628675460815,-0.2901763021945953,0.7917830944061279,-0.5374730229377747,-0.0223847329616546,0.0463821291923522,0.0507786870002746,0.3198832428179883,-0.3188092977489279,0.360033505677589,-0.8163401530097989,-0.913722803441362,-0.4950480740259327,-2.641837512007424,2170,0.4578930351634046,1
1761072569473939712,2.4429397583007812,-0.260557472705841,0.3120471537113189,-0.1931738257408142,-0.2900371253490448,0.792495846748352,-0.536496639251709,-0.0078754127025604,0.0191038250923156,0.0404182076454162,0.3178816479727946,-0.3181451114571575,0.3612967708146382,-0.8168228059361298,-0.914890596443108,-0.4956078465197613,-2.64714140591047,2180,0.4500886020257934,1
1761072569483985664,2.4529857635498047,-0.303336888551712,0.2799004018306732,-0.1534724831581115,-0.2898368835449219,0.7934974431991577,-0.5351226925849915,0.0103263854980468,-0.0119575262069702,0.0360382795333862,0.3160070206900262,-0.317619640967165,0.3627070479719641,-0.8171296164083204,-0.9165345621766524,-0.4963920396116941,-2.652297855115252,2190,0.4403536147097272,1
1761072569494031616,2.463031768798828,-0.2995127439498901,0.2510601282119751,-0.1074704602360725,-0.2894662916660309,0.7947499752044678,-0.5334619879722595,0.0249552130699157,-0.0413931012153625,0.027556836605072,0.3143353534929058,-0.3171836769938251,0.3642300586728023,-0.8172662772148306,-0.918595522187296,-0.4971583008402449,-2.6570084106146976,2200,0.4053257598396123,1
1761072569504076800,2.473076820373535,-0.2654945850372314,0.2331799417734146,-0.0710016638040542,-0.2888837158679962,0.796007513999939,-0.5319005250930786,0.0252881646156311,-0.0576195120811462,0.0129186511039733,0.3130346723826049,-0.3167824224909001,0.3656482378340413,-0.8172878819596081,-0.9206702815642424,-0.4975426773520125,-2.6606456754422174,2210,0.3604185014569711,1
1761072569514122752,2.4831228256225586,-0.2157142460346222,0.2383374273777008,-0.0738077461719513,-0.2882046103477478,0.7970954775810242,-0.5306381583213806,0.0123562216758728,-0.0476142764091491,-0.0023360252380371,0.3119133203243378,-0.3163276109033015,0.3669029216254305,-0.8173305186699,-0.9224698906380748,-0.4975521186638181,-2.663640363630435,2220,0.32982563367071627,1
1761072569524168704,2.493168830871582,-0.1919529885053634,0.2485911250114441,-0.0911473259329795,-0.2875996232032776,0.7979094982147217,-0.5297423601150513,0.001268446445465,-0.0344359874725341,-0.0072296857833862,0.3107008998813392,-0.3157584909512183,0.3680019134747207,-0.8175182816017948,-0.92381906413568,-0.4973794822268849,-2.66671462403563,2230,0.3270341453966671,1
1761072569534214656,2.5032148361206055,-0.2072280496358871,0.2531741261482239,-0.1021299287676811,-0.2870396971702575,0.7986853122711182,-0.5288761854171753,-0.0004511475563049,-0.0292608737945556,-0.0073634386062622,0.3094116696734055,-0.3151642001322824,0.3690981373701773,-0.817742347325299,-0.92510726976865,-0.4972484697839752,-2.669986898507779,2240,0.3427406089988493,1
1761072569544260864,2.513260841369629,-0.2556895911693573,0.2553398013114929,-0.1209707334637641,-0.2865785658359527,0.7995840907096863,-0.52776700258255,-0.0008207559585571,-0.0326316356658935,-0.0004007220268249,0.3078669966197677,-0.3145655286399684,0.3703579643499241,-0.8179862309201934,-0.9266024042479946,-0.4974546101041975,-2.6740648896807504,2250,0.3810636423498138,1
1761072569554305792,2.523305892944336,-0.3395150899887085,0.2237460315227508,-0.1198688074946403,-0.2862943410873413,0.800809383392334,-0.5260607600212097,-0.0016542673110961,-0.0322546958923339,0.0124346613883972,0.3061557414713359,-0.3141367445382924,0.3718705779585387,-0.8181070200821656,-0.9286454282481724,-0.4983970232069818,-2.6789621906975314,2260,0.42391191769329595,1
1761072569564351744,2.5333518981933594,-0.4015784561634063,0.1934238076210022,-0.1144822984933853,-0.2861363291740417,0.8024553060531616,-0.523632824420929,-0.0121119320392608,-0.0176347494125366,0.0003479719161987,0.3044896546608931,-0.3139832236780944,0.373628302235367,-0.8179867679079421,-0.9313986237655651,-0.5001094305201523,-2.684205857688262,2270,0.4602001982588881,1
1761072569574397440,2.5433976650238037,-0.3646469414234161,0.1616652011871338,-0.1210086345672607,-0.2861772775650024,0.8041492104530334,-0.5210054516792297,-0.0376447439193725,-0.0097461342811584,-0.0212308168411254,0.3030529764409504,-0.3140763843255837,0.3753042691396587,-0.8177173882309243,-0.9342428193827506,-0.502289390166166,-2.6891262107560663,2280,0.4168286444141784,1
1761072569584443648,2.553443670272827,-0.3154410421848297,0.1277732849121093,-0.1106601282954216,-0.286365270614624,0.8055862188339233,-0.5186770558357239,-0.0683405697345733,0.0014053583145141,-0.0446011424064636,0.3013725457994171,-0.3140373645706145,0.3768846018980872,-0.8176266075897975,-0.9366642691860227,-0.5044594743500735,-2.69458804255013,2290,0.3578752959149901,1
1761072569594489600,2.5634896755218506,-0.276551216840744,0.0850855410099029,-0.0972171127796173,-0.2866624593734741,0.8068192005157471,-0.5165920853614807,-0.0970197618007659,0.0354658961296081,-0.0565280318260192,0.3001226576381156,-0.3141758484361596,0.3781500971886636,-0.8174486919827836,-0.9387482247319692,-0.5066055660966863,-2.698945303795429,2300,0.3052397284795164,1
1761072569604534528,2.5735347270965576,-0.2375960946083068,0.0687084347009658,-0.1089720353484153,-0.2871047556400299,0.8078621625900269,-0.5147132277488708,-0.1196182668209075,0.0453940629959106,-0.0600701570510864,0.298894239701544,-0.3143320847007115,0.3792607670417102,-0.817324267955767,-0.9405157166647616,-0.508808599963341,-2.703237298623038,2310,0.2702733017894158,1
1761072569614580736,2.583580732345581,-0.2157476395368576,0.0525154545903205,-0.1222445219755172,-0.2877616882324219,0.8086757063865662,-0.513066291809082,-0.1279487907886505,0.0232488512992858,-0.0484266877174377,0.2976489812228524,-0.3145148588353371,0.3801937185205757,-0.8172749747551765,-0.9418973458712656,-0.5111477336162561,-2.7075819190160137,2320,0.25347315457376657,1
1761072569624626688,2.5936267375946045,-0.2342472821474075,0.0353950560092926,-0.1160167157649993,-0.2885342240333557,0.8094931840896606,-0.5113400816917419,-0.1178073287010192,0.0043343305587768,-0.0432100296020507,0.296368049469447,-0.3147548867214199,0.3811289884559569,-0.817212296886773,-0.9432883765799004,-0.5137335080527232,-2.7121362555348982,2330,0.26378869862115917,1
1761072569634672640,2.603672742843628,-0.2297290712594986,0.0266767647117376,-0.1102078333497047,-0.2893082797527313,0.8103630542755127,-0.5095217227935791,-0.1021711528301239,-0.0124657750129699,-0.0478054881095886,0.2951111465377922,-0.3150297008889838,0.3820934911366767,-0.8171108566519992,-0.9447714347891184,-0.5164092116423671,-2.7166952581795685,2340,0.25618911469629907,1
1761072569644717568,2.613717794418335,-0.2326353788375854,0.025614695623517,-0.0992696955800056,-0.2900563180446625,0.8112360835075378,-0.5077039003372192,-0.0874003469944,-0.0163447856903076,-0.0388811826705932,0.293973898941528,-0.3153457552169444,0.3830210090905064,-0.8169646770992265,-0.9462630546786678,-0.5190567241093526,-2.7209569687625557,2350,0.254223926056025,1
1761072569654763776,2.6237637996673584,-0.2403454482555389,0.0249320939183235,-0.079942874610424,-0.2907094955444336,0.8121687769889832,-0.505835771560669,-0.0693674087524414,0.0011551976203918,-0.0304648876190185,0.2929076581570516,-0.3156619061327035,0.3839787238224429,-0.816775975283764,-0.9478598822398884,-0.5216172186103719,-2.725028384907818,2360,0.25451602504613735,1
1761072569664809728,2.633809804916382,-0.2282150238752365,0.035036128014326,-0.0550292655825614,-0.2911289930343628,0.8131510019302368,-0.5040132999420166,-0.0554438829421997,0.0073751211166381,-0.0354001522064209,0.2920268515303382,-0.3159403354537273,0.3849351180550185,-0.8165335818368776,-0.9495454630410112,-0.5238022897208021,-2.7284909242304582,2370,0.23735595096640633,1
1761072569674855680,2.6438558101654053,-0.1966441422700882,0.0472444221377372,-0.0302841514348983,-0.291302889585495,0.8140990138053894,-0.502379834651947,-0.0438258945941925,0.009127914905548,-0.0305791497230529,0.2912713399157279,-0.3161085924821368,0.3858567731106784,-0.8163032160906241,-0.95117599102085,-0.5254684845384349,-2.731398679500233,2380,0.20449470394217853,1
1761072569684901632,2.6539018154144287,-0.1612627208232879,0.0615194998681545,0.0067830570042133,-0.291153222322464,0.8149608373641968,-0.5010674595832825,-0.0373989939689636,0.0152392983436584,-0.0225988626480102,0.2906073404772021,-0.3160782578610799,0.3867309070678522,-0.8161379079593754,-0.9526616020099417,-0.5263809983513918,-2.7337057543019108,2390,0.17273194219275126,1
1761072569694946816,2.6639468669891357,-0.1342618614435196,0.0681730061769485,0.039690051227808,-0.2906499803066253,0.815764844417572,-0.5000503659248352,-0.033141553401947,0.0191808342933654,-0.0158644914627075,0.2901048209144923,-0.3158754801027286,0.3875532042819487,-0.8160052091016987,-0.9540503843857552,-0.5265121764994402,-2.735232494445552,2400,0.1557212457436272,1
1761072569704992768,2.673992872238159,-0.1433251351118087,0.0723336637020111,0.0604904070496559,-0.2898966073989868,0.816580593585968,-0.4991555213928222,-0.0300191640853881,0.0032588839530944,-0.0140433311462402,0.289787143657136,-0.3156075919210738,0.3883478931220864,-0.8158439222496269,-0.9554621268800184,-0.5261628686117514,-2.7360819580559115,2410,0.17156148345245478,1
1761072569715038720,2.6840388774871826,-0.1899573802947998,0.0641418099403381,0.0719700455665588,-0.2890282273292541,0.8176093697547913,-0.4979735910892486,-0.0232124328613281,-0.0151495933532714,-0.0034302473068237,0.2895206344825778,-0.3153855800961705,0.389287986991196,-0.8155763232512034,-0.9572467070007576,-0.5258895683559801,-2.7369042491233557,2420,0.21302034074176626,1
1761072569725084672,2.694084882736206,-0.2277630865573883,0.0476035848259925,0.0664602369070053,-0.2882039248943329,0.8188490867614746,-0.4964118003845215,-0.0071757435798645,-0.0377058982849121,0.0038428306579589,0.2892259539351209,-0.3152720439542733,0.390381394660239,-0.8152019610573481,-0.9594030721105996,-0.5260133859098622,-2.7380475498502066,2430,0.2419898509776166,1
1761072569735130880,2.7041308879852295,-0.2752221822738647,0.0082319108769297,0.0577614605426788,-0.2879432439804077,0.8200415372848511,-0.4945914447307586,0.0133155286312103,-0.056949496269226,0.018791913986206,0.2888049852732128,-0.3154347821907982,0.3914143211081866,-0.8147929220755075,-0.961483550087072,-0.5272165005565554,-2.7400074192512704,2440,0.28133858657549543,1
1761072569745175552,2.7141757011413574,-0.3011320829391479,-0.0296185333281755,0.0604792162775993,-0.287783682346344,0.8214598894119263,-0.4923253059387207,0.0274992585182189,-0.0513335466384887,0.0189061164855957,0.2884310247015184,-0.3157867557672548,0.3925761954101164,-0.8142298307204847,-0.9639663390664652,-0.5289740552404829,-2.742191549201482,2450,0.3085701289712514,1
1761072569755221504,2.724221706390381,-0.2784216105937958,-0.0536062568426132,0.0523880906403064,-0.2877142131328583,0.8229342103004456,-0.489897757768631,0.0295660197734832,-0.0446444153785705,-0.0057076811790466,0.2881182896673017,-0.3162533975546898,0.3937447252509231,-0.8135949422485066,-0.966556486584048,-0.5310247683295635,-2.744392304739482,2460,0.28833441705640417,1
1761072569765267712,2.7342677116394043,-0.2157491594552993,-0.0695575252175331,0.0289506763219833,-0.2878488898277282,0.8241367340087891,-0.4877926111221313,0.0192026495933532,-0.056344985961914,-0.0188602209091186,0.2879014885395438,-0.3167769651922965,0.3946594007415643,-0.8130246259617777,-0.9686763689900956,-0.5331120294723997,-2.746301614660945,2470,0.22852590833329198,1
1761072569775313664,2.7443137168884277,-0.2003352493047714,-0.09639373421669,0.0049599446356296,-0.2882890701293945,0.8250993490219116,-0.4859017729759216,0.0082902610301971,-0.0669969916343689,-0.0112906098365783,0.2877000984452798,-0.3173965606763694,0.395358737862593,-0.8125143992582567,-0.9703780719533752,-0.5354838349606664,-2.748245132448471,2480,0.22237483032265878,1
1761072569785358592,2.7543587684631348,-0.1892919242382049,-0.1291527450084686,-0.0148739470168948,-0.289065271615982,0.8258755803108215,-0.4841186106204986,0.0021847784519195,-0.0601895451545715,-0.0078552365303039,0.2875075282645096,-0.3181525881781017,0.3958782912584264,-0.8120337080796178,-0.9717532600058308,-0.5382814447720954,-2.750322878708947,2490,0.2296368838511928,1
1761072569795404800,2.764404773712158,-0.1799033135175705,-0.1824699342250824,-0.0198410097509622,-0.2902376055717468,0.8265011310577393,-0.4823463261127472,0.0081178545951843,-0.0495083332061767,-0.0088950991630554,0.2873479761833318,-0.319111755388847,0.3962253455929808,-0.8115443721466434,-0.9728636214242228,-0.5416834970962607,-2.752572773334507,2500,0.2570100091020677,1
1761072569805450752,2.7744507789611816,-0.1507632732391357,-0.2396786212921142,-0.017871068790555,-0.2916269898414612,0.8269663453102112,-0.4807083904743194,0.0208292305469512,-0.0482949614524841,-0.0247848629951477,0.2873591723421688,-0.320222532184519,0.3963626362360273,-0.811035805612487,-0.9736905257407504,-0.5453028643218525,-2.7544619502799197,2510,0.28371602203961577,1
1761072569815496704,2.784496784210205,-0.1282028406858444,-0.2845939099788666,-0.034912634640932,-0.2931448221206665,0.8272855281829834,-0.4792333841323852,0.0158621668815612,-0.0685575604438781,-0.0303338468074798,0.2875729552014143,-0.3214505409579087,0.396298953263123,-0.8105050224811827,-0.9742584884778664,-0.5489746767659349,-2.755832946597925,2520,0.31408367358802725,1
1761072569825542656,2.7945427894592285,-0.1392941027879715,-0.3119397759437561,-0.0556346923112869,-0.2947986125946045,0.827693521976471,-0.4775116741657257,-0.0030072331428527,-0.0671190619468689,-0.0267608165740966,0.2876297747600181,-0.3227334484451829,0.396342378461735,-0.8099537566101599,-0.9749850432874336,-0.5530895244626849,-2.7578398419465917,2530,0.34612785192168266,1
1761072569835587840,2.8045878410339355,-0.1335223764181137,-0.3257923126220703,-0.0697113648056984,-0.2966413497924804,0.8280249834060669,-0.475792646408081,-0.0161791145801544,-0.0419989824295043,-0.0332863330841064,0.2876976403800142,-0.3241118846288772,0.3963018617441101,-0.8093988285003508,-0.9755759829989392,-0.5574966698013748,-2.7599403629355383,2540,0.3589269150552107,1
1761072569845633792,2.814633846282959,-0.0991750434041023,-0.3185815513134002,-0.0878333747386932,-0.2987289428710937,0.8281241059303284,-0.4743116796016693,-0.0278091728687286,-0.0274344086647033,-0.045097529888153,0.2877998168784829,-0.3255602054189287,0.396048880968166,-0.8089049448680834,-0.975752854498257,-0.5620547840588056,-2.761953302794169,2550,0.34502839852604295,1
1761072569855679744,2.8246798515319824,-0.0690982714295387,-0.2952699661254883,-0.1072040498256683,-0.3009951114654541,0.8282228708267212,-0.472703605890274,-0.0373227000236511,-0.0242220759391784,-0.0460647046566009,0.2878229003083469,-0.3270894882004406,0.3958038221941128,-0.808399464040322,-0.9759290530308012,-0.5670058359059563,-2.7643544554527506,2560,0.3216389782183148,1
1761072569865725696,2.834725856781006,-0.042201142758131,-0.2667680084705353,-0.1025155559182167,-0.3032156229019165,0.8281565308570862,-0.4713989794254303,-0.0385201871395111,-0.0170909166336059,-0.0480864942073822,0.2878070725548973,-0.3284955685197179,0.3954632407871991,-0.8080015561588094,-0.97581064416351,-0.5715977569651557,-2.766618106412529,2570,0.2888867355879268,1
1761072569875771648,2.8447718620300293,-0.0136686023324728,-0.2443028837442398,-0.0798700749874115,-0.3051978349685669,0.8280023336410522,-0.4703896641731262,-0.0340660810470581,-0.015410840511322,-0.0498740077018737,0.2878528228004327,-0.3297376458801136,0.3950674068801749,-0.8076729703920676,-0.9755356451171218,-0.5755446695071309,-2.7683809255635556,2580,0.25739067305162705,1
1761072569885816576,2.8548166751861572,0.0032326164655387,-0.2192052453756332,-0.0399700701236724,-0.3068141043186188,0.8278372287750244,-0.4696282744407654,-0.0262394845485687,-0.0158102512359619,-0.0397863984107971,0.2880725549481779,-0.3308225886718828,0.3946419589848109,-0.8073589150463429,-0.9752412116911516,-0.5787004531549055,-2.7693200858188582,2590,0.22284298489092297,1
1761072569895862528,2.8648626804351807,0.0166236218065023,-0.1930909156799316,0.0008114501833915,-0.3079645037651062,0.8277243971824646,-0.4690736830234527,-0.017749547958374,-0.0053215026855468,-0.0336575806140899,0.288442593539379,-0.331702409055866,0.3942545796666352,-0.8070549489877576,-0.975040162951069,-0.5809573658577094,-2.7694649572366,2600,0.19380687544945407,1
1761072569905908480,2.874908685684204,0.0363358110189437,-0.159568652510643,0.0188101585954427,-0.3087193071842193,0.8276292681694031,-0.4687452614307403,-0.0092433094978332,0.0052258968353271,-0.0248155295848846,0.2888414927785563,-0.3323460451920794,0.3939206542848724,-0.8068105008719811,-0.9748706539981,-0.5824026497409526,-2.7691472610053767,2610,0.16473089598752394,1
1761072569915954688,2.8849546909332275,0.0390790328383445,-0.1364176869392395,0.031425729393959,-0.3092273473739624,0.827529788017273,-0.4685861468315124,-0.0002514123916625,0.0058289766311645,-0.00860196352005,0.2892403587437617,-0.3328258445457142,0.3936164193052873,-0.8066183260026266,-0.974693351309837,-0.5833142683541231,-2.768566823504277,2620,0.14534281057339954,1
1761072569925999616,2.8949997425079346,0.0151342842727899,-0.1137712299823761,0.0403784774243831,-0.3095237612724304,0.8275113105773926,-0.4684231281280517,0.008772999048233,0.0175204277038574,0.0011379718780517,0.2895691694210659,-0.33317172237565,0.3934272980960777,-0.8064498739694338,-0.9746604712548528,-0.5839148312671583,-2.76803771425457,2630,0.12166906250671838,1
1761072569936045568,2.905045747756958,0.0115373842418193,-0.0962486565113067,0.0275799483060836,-0.3100916743278503,0.8270732760429382,-0.4688207507133484,0.0146205127239227,0.0360248088836669,0.0117132365703582,0.2897637359733336,-0.3334278760488564,0.3929573502492934,-0.8065031380488727,-0.9738807566876082,-0.5843678159570815,-2.767614822211416,2640,0.10078476404666095,1
1761072569946091776,2.9150917530059814,0.0135323591530323,-0.0917676240205764,0.0082469964399933,-0.3107114732265472,0.8266608119010925,-0.4691377580165863,0.0233885049819946,0.0419151782989501,0.0242525041103363,0.2898767289381447,-0.3336905995406901,0.3925324252241854,-0.8065607995488772,-0.9731473359916032,-0.584975721050861,-2.767478794963275,2650,0.09312590677630897,1
1761072569956137728,2.925137758255005,-0.0147313028573989,-0.0960850715637207,0.0241853035986423,-0.3113055229187011,0.8263635039329529,-0.4692676663398742,0.0334125161170959,0.0427160263061523,0.0265644490718841,0.289981658916491,-0.3339881151839667,0.3921965226992323,-0.8065633279411838,-0.9726192102537324,-0.5857278489652411,-2.7674748987650397,2660,0.10017125920861851,1
1761072569966183680,2.9351837635040283,-0.0219018645584583,-0.105806678533554,0.030948668718338,-0.3117586672306061,0.8262776732444763,-0.4691179394721985,0.0414035022258758,0.0425882339477539,0.0236376523971557,0.2901446690144355,-0.3343233932635288,0.392006248456727,-0.8064582534279792,-0.972466740416846,-0.5865451709458811,-2.767436295514823,2670,0.11239468398851131,1
1761072569976228608,2.9452288150787354,-0.0318862237036228,-0.1197817176580429,0.0335876829922199,-0.3121562898159027,0.8262760639190674,-0.4688563644886017,0.0377422571182251,0.0251185297966003,0.0244136154651641,0.2903574068293983,-0.3346870557398809,0.391862728597781,-0.8063006339386679,-0.9724639259075096,-0.5873901259785054,-2.767318775052686,2680,0.12842322062607853,1
1761072569986274816,2.955274820327759,-0.0312819518148899,-0.1267645210027694,0.0495376214385032,-0.312404453754425,0.8264527320861816,-0.4683796167373657,0.027553379535675,0.0153288841247558,0.0280719995498657,0.2906533369917209,-0.3350792925488198,0.3918316775156514,-0.806046260381394,-0.9727776719638044,-0.5882263234356186,-2.7670566238249963,2690,0.13964877454598412,1
1761072569996320768,2.9653208255767822,-0.0183249395340681,-0.1346090584993362,0.0618985071778297,-0.3124850988388061,0.8267508149147034,-0.4677992761135101,0.0193027257919311,0.0131234526634216,0.0268508195877075,0.2911134890161336,-0.3355006216807444,0.3918414175307137,-0.8057000509014535,-0.9733072991313224,-0.588917984112815,-2.7663616592475297,2700,0.1492877330186536,1
1761072570006366720,2.9753668308258057,-0.0002921433188021,-0.1374943256378173,0.053431250154972,-0.3124697804450989,0.8270958662033081,-0.4671991169452667,0.0096133649349212,0.0182104706764221,0.0302636921405792,0.2914895360467676,-0.3358412870928076,0.3919324807489275,-0.8053777646460136,-0.973920904392489,-0.5894884312606237,-2.765833910069606,2710,0.1475116043687413,1
1761072570016412672,2.985412836074829,0.0046192584559321,-0.1389350891113281,0.043423093855381,-0.3124573528766632,0.8274503350257874,-0.4665794670581817,0.0043518841266632,0.0144991278648376,0.0383720397949218,0.2920278512488361,-0.3362679615037057,0.3919618969842203,-0.8049903582820729,-0.9745518476149396,-0.5900835200337028,-2.7649185567837136,2720,0.14563605877332925,1
1761072570026457856,2.995457887649536,-0.0113959275186061,-0.1403433829545974,0.0344639495015144,-0.3124134838581085,0.8279403448104858,-0.465738832950592,0.0018971264362335,0.0101181268692016,0.047831118106842,0.2923793077726694,-0.3366500190290648,0.3921700532498903,-0.8046016221205806,-0.9754250199774706,-0.590852584092032,-2.764602713859081,2730,0.14496170569634256,1
1761072570036503808,3.0055038928985596,-0.028327539563179,-0.1327932775020599,0.025388965383172,-0.3122134506702423,0.8285952210426331,-0.4647071361541748,0.0043674111366271,0.0067471861839294,0.0475928783416748,0.2928592026464343,-0.3370739184041537,0.3924635139402753,-0.8041063586640367,-0.976593774976186,-0.5915824486826288,-2.7640104901072933,2740,0.13813436795624204,1
1761072570046549760,3.015549898147583,-0.0682203620672226,-0.1309525072574615,0.0260624773800373,-0.31184783577919,0.8294403553009033,-0.4634432792663574,0.0070230066776275,0.0030333995819091,0.0568575859069824,0.2932533365706706,-0.3374422448109086,0.3929517716896091,-0.8035696078896406,-0.978105014937592,-0.5923009035196066,-2.763697912400927,2750,0.14993942004951002,1
1761072570056595456,3.0255956649780273,-0.0779953300952911,-0.1255336701869964,0.035107459872961,-0.3114132285118103,0.8304070830345154,-0.4620021879673004,0.0098537504673004,0.0010595917701721,0.0540279746055603,0.2936802384378704,-0.3378435858617635,0.393523335182066,-0.8029652031426165,-0.979837887483856,-0.5930977142111411,-2.7633889323773686,2760,0.15190295456646843,1
1761072570066640640,3.0356407165527344,-0.0540630966424942,-0.1117739230394363,0.0494334027171134,-0.3109650909900665,0.8313702344894409,-0.4605695307254791,0.0031495094299316,0.002400517463684,0.0397626161575317,0.2940683198666968,-0.3382179331779243,0.3941114896384883,-0.8023768587764795,-0.9815688570825613,-0.5938699520224306,-2.763164565151709,2770,0.13364089791075864,1
1761072570076686592,3.045686721801758,-0.0158065874129533,-0.0971008986234664,0.06390430778265,-0.3105701804161072,0.832126796245575,-0.4594684839248657,-0.0073619782924652,0.0155447125434875,0.0305439233779907,0.2945210033014003,-0.338558135213557,0.3945176195860879,-0.8018676325850754,-0.982931628649078,-0.5943907494100056,-2.7625783550870073,2780,0.11731237476203307,1
1761072570086732544,3.0557327270507812,0.00287921493873,-0.0817009061574935,0.058385707437992,-0.3102754950523376,0.8326990604400635,-0.4586297571659088,-0.0135159492492675,0.0191075205802917,0.0218012332916259,0.2949036584273377,-0.3388393283129656,0.3948075807784817,-0.8014652596639318,-0.983964286064126,-0.5947980774582649,-2.76204123551816,2790,0.10046003572890944,1
1761072570096778752,3.0657787322998047,-0.0145037695765495,-0.0652162134647369,0.0561996065080165,-0.3100883364677429,0.8332783579826355,-0.4577032029628753,-0.0147102177143096,0.0063058733940124,0.0261694192886352,0.2951122522706227,-0.3391104110460076,0.3951614013464618,-0.8010993746413586,-0.9850113716660636,-0.5954567979363986,-2.7620655037651782,2800,0.08730354862354488,1
1761072570106824704,3.075824737548828,-0.0464784801006317,-0.0572368465363979,0.0419564880430698,-0.3100219964981079,0.8339877128601074,-0.4564546048641205,-0.0063994526863098,-0.0091128945350646,0.0324891507625579,0.2951643433237094,-0.3394511227172381,0.3956584852237594,-0.8006904803778029,-0.9862956368507058,-0.5966264836745042,-2.7627836392822633,2810,0.08483308672212889,1
1761072570116869632,3.085869789123535,-0.0408639721572399,-0.0571937337517738,0.0318437553942203,-0.3100217282772064,0.8346999287605286,-0.4551510512828827,0.0044644773006439,-0.017484962940216,0.02579927444458,0.2952948839688976,-0.3398773998072686,0.3961159177843277,-0.8002352240475926,-0.9875876859747132,-0.5979559799319261,-2.763388330021164,2820,0.07716872526187925,1
1761072570126915584,3.0959157943725586,-0.0289468578994274,-0.0738808363676071,0.0212105549871921,-0.310123085975647,0.8353425860404968,-0.4539012610912323,0.0121647417545318,-0.0152132511138916,0.0124645829200744,0.2954296761262688,-0.3403394107555381,0.3965078175137584,-0.799794867757838,-0.988755630785425,-0.5993882127358333,-2.764008862009656,2830,0.08213517034432617,1
1761072570136961792,3.105961799621582,0.0044083353132009,-0.0854902490973472,0.006541596725583,-0.3103402853012085,0.8357753753662109,-0.4529554843902588,0.0113442540168762,-0.0144098997116088,0.0068036913871765,0.2953598790575685,-0.3406706226375973,0.3968195847080545,-0.7995251531696853,-0.9895433756320304,-0.6006865962239556,-2.764995522447377,2840,0.08585341343639312,1
1761072570147007744,3.1160078048706055,-0.008546344935894,-0.088581383228302,0.0011108783073723,-0.3107322454452514,0.8360025882720947,-0.452266663312912,0.0062431097030639,-0.0192301273345947,0.0057486891746521,0.2952469766415057,-0.3409921117671892,0.3969773949271537,-0.7993513391766238,-0.9899574017815684,-0.601985385051321,-2.7660114359014156,2850,0.08899963773530976,1
1761072570157053696,3.126053810119629,-0.0214666370302438,-0.0963914021849632,-0.000378627795726,-0.3112343251705169,0.8362335562705994,-0.4514938592910766,0.0022896230220794,-0.0208343863487243,0.0093551874160766,0.2951507973143338,-0.3413975006341642,0.3971156231768157,-0.7991451642777518,-0.99037841072885,-0.6035380622384574,-2.767114074568292,2860,0.0987535431241799,1
1761072570167098880,3.136098861694336,-0.0296087190508842,-0.0922003909945488,-0.0043241009116172,-0.3117862641811371,0.8364469408988953,-0.450717031955719,-0.0084499418735504,-0.0135251879692077,0.0125303864479064,0.2950555655502306,-0.3418281963123403,0.3972341556876572,-0.7989372373130351,-0.9907676634835516,-0.6051716985076103,-2.768248694635379,2870,0.09693444275424354,1
1761072570177144832,3.1461448669433594,-0.0170976556837558,-0.0904219970107078,-0.0062674982473254,-0.3124384880065918,0.8366071581840515,-0.4499673247337341,-0.0182041823863983,0.0034043788909912,0.009278267621994,0.2949598193221091,-0.3422987509452943,0.3973007753426436,-0.7987379647497329,-0.9910601109575126,-0.6069294597647575,-2.769426214254906,2880,0.09223745935120363,1
1761072570187190784,3.156190872192383,0.0050156358629465,-0.0815406143665313,-0.0114798368886113,-0.3130597770214081,0.8366993069648743,-0.4493639469146728,-0.0220842659473419,0.0180370211601257,0.0040056705474853,0.2948809059975208,-0.3427222903148332,0.3973153150690128,-0.7985783313640322,-0.991228333034186,-0.6084896798154708,-2.770436844804151,2890,0.08249736389346127,1
1761072570197236736,3.1662368774414062,0.0127161657437682,-0.0747831091284751,-0.0099288122728466,-0.3135144710540771,0.8366978168487549,-0.449049562215805,-0.0152056217193603,0.0217311382293701,0.0042405724525451,0.2948515333537367,-0.3430110429314441,0.3972639555247258,-0.7984906840599005,-0.9912255530730488,-0.6094990389541756,-2.771011961619964,2900,0.07650356589920387,1
1761072570207281664,3.176281690597534,-0.0018814182840287,-0.0722959861159324,-0.0008503622375428,-0.3137061297893524,0.8366920351982117,-0.4489264488220215,-0.0055992901325225,0.0170066952705383,0.0079321861267089,0.2950395235249907,-0.3432298007769124,0.3971524573331398,-0.7983827131335169,-0.9912150128766302,-0.6099146424078372,-2.7707455031097674,2910,0.07232546203910215,1
1761072570217327616,3.1863276958465576,-0.0354372486472129,-0.0747932344675064,0.0039510503411293,-0.313833475112915,0.8367929458618164,-0.4486490786075592,0.0045225918292999,0.0106038451194763,0.0146891772747039,0.2950343470986862,-0.3433649086157289,0.3972102758676749,-0.7982976755694791,-0.9913993393582116,-0.6103954661090824,-2.771038318450174,2920,0.08285793451802861,1
1761072570227373568,3.196373701095581,-0.0554290674626827,-0.073194533586502,0.0133000779896974,-0.3140357732772827,0.8369879126548767,-0.4481435716152191,0.0118202567100524,-0.0009894371032714,0.0139547288417816,0.2951521537259688,-0.3436603245902653,0.3972729515838589,-0.7980957959427798,-0.9917554999552152,-0.6112279182919776,-2.7712361339411244,2930,0.09277237380416777,1
1761072570237419520,3.2064197063446045,-0.0548535585403442,-0.0791653469204902,0.0318380743265152,-0.3142283856868744,0.8372511863708496,-0.4475165009498596,0.0136912763118743,-0.0083480477333068,0.0103674530982971,0.2951815148024579,-0.3439409989592768,0.3974246326466346,-0.7978885936078689,-0.9922368309820224,-0.6121744624022735,-2.7717405332998464,2940,0.10143829658665035,1
1761072570247465728,3.216465711593628,-0.0389576815068721,-0.0757490396499633,0.03715081512928,-0.3145020008087158,0.8375316858291626,-0.4467986524105072,0.0082123577594757,0.0012744069099426,0.0033935606479644,0.2953335934532997,-0.3443467285034983,0.3975248387180159,-0.7976072133603622,-0.992749924146348,-0.6133392342413538,-2.772053587499891,2950,0.0929290106535765,1
1761072570257510656,3.226510763168335,-0.0323170870542526,-0.0836964473128318,0.0294268503785133,-0.3148502111434936,0.8377676010131836,-0.4461106359958648,-0.0045925080776214,0.0054024457931518,0.0032853484153747,0.2953933537778397,-0.3447336385090514,0.3976221911288532,-0.797369393428018,-0.993181830824276,-0.6145860214794807,-2.7726215877493305,2960,0.09442154908526537,1
1761072570267556608,3.2365567684173584,-0.040881548076868,-0.0955421850085258,0.0251383613795042,-0.3152547776699066,0.8380184173583984,-0.4453533291816711,-0.0123819410800933,0.0078678131103515,0.0088146328926086,0.2955490856990144,-0.3452145724958835,0.3976810663523838,-0.7970743165743317,-0.9936414003916034,-0.6159921095946281,-2.773035150043401,2970,0.10691841423352288,1
1761072570277602560,3.246602773666382,-0.0617580339312553,-0.0946945399045944,0.0254759602248668,-0.3155820965766907,0.8383646011352539,-0.4444689154624939,-0.0126954615116119,0.0048665404319763,0.0091662108898162,0.295432654259422,-0.3455586688302918,0.3979381133683246,-0.796839968942502,-0.9942761669047568,-0.6174195820547139,-2.7741825546033105,2980,0.11588846013376783,1
1761072570287648768,3.2566487789154053,-0.083738699555397,-0.1022893413901329,0.0217422097921371,-0.3158089220523834,0.838860273361206,-0.4433715641498565,-0.013643592596054,0.0105354785919189,0.0095794796943664,0.2954319391671544,-0.3459722863118795,0.3982679952093503,-0.7964960166223243,-0.9951860756021386,-0.6189264427568526,-2.775142882172309,2990,0.13397015657190786,1
1761072570297694720,3.2666947841644287,-0.0771529376506805,-0.1098404973745346,0.0248664524406194,-0.3159613311290741,0.8394432663917542,-0.4421576857566833,-0.0112176239490509,0.0065192580223083,-0.0005150437355041,0.2954973468701287,-0.3464164187821946,0.3986437318380019,-0.7960905104481467,-0.9962579306787372,-0.6204507349895054,-2.7759844735661985,3000,0.13651319023668199,1
1761072570307739648,3.2767398357391357,-0.0568093135952949,-0.1203546598553657,0.0329821705818176,-0.3160634338855743,0.8399271368980408,-0.4411647319793701,-0.0018534362316131,-0.0046457648277282,-0.0061924457550048,0.2956383612860837,-0.3468129871090024,0.3989215283838502,-0.7957263145376587,-0.9971489931899322,-0.6216675774374636,-2.7764427436423076,3010,0.13711442606946014,1
1761072570317785856,3.286785840988159,-0.0425300449132919,-0.1508523225784301,0.0512855425477027,-0.3161448538303375,0.8403230309486389,-0.4403516054153442,0.0103587806224823,-0.0053011178970336,-0.0061052739620208,0.2958366354081644,-0.3471784800581007,0.3991131478336207,-0.7953969834570106,-0.9978788206993772,-0.6226632749287743,-2.776610330905086,3020,0.1649103842153234,1
1761072570327831808,3.2968318462371826,0.0008643013425171,-0.1702244281768798,0.0729255974292755,-0.316173106431961,0.840644121170044,-0.4397181570529938,0.0189471542835235,-0.0047066211700439,-0.0152378678321838,0.2961889583406473,-0.3475459528169689,0.399190086324471,-0.7950667884278283,-0.9984714209870132,-0.6233877374995246,-2.7762234524904508,3030,0.18518975599469087,1
1761072570337877760,3.306877851486206,0.0487296283245086,-0.1940456479787826,0.0899508222937583,-0.3163280189037323,0.8407602310180664,-0.439384788274765,0.0196818709373474,-0.0034494400024414,-0.0204998850822448,0.2967852458004936,-0.3480122506359868,0.3989925845850344,-0.7947396087846752,-0.9986858568789714,-0.6239795425901546,-2.775069397888266,3040,0.21936143828730165,1
1761072570347923712,3.3169238567352295,0.0760102495551109,-0.2181326150894165,0.0933977514505386,-0.316596120595932,0.8407760858535767,-0.4391610622406006,0.0197211503982543,0.009947121143341,-0.0166952311992645,0.2975307653724989,-0.3485764448082496,0.3986400995645617,-0.7943903104294381,-0.9987151771529628,-0.6246228709982521,-2.7735224461981165,3050,0.2491636726715882,1
1761072570357968640,3.3269686698913574,0.1011442616581916,-0.2385403215885162,0.0951523333787918,-0.3169628977775574,0.8406526446342468,-0.4391327798366546,0.0246044993400573,0.0099332928657531,-0.0173949003219604,0.2983821997676578,-0.3491852796253008,0.3981246592657319,-0.7940619972339888,-0.9984872276600186,-0.6252027811944284,-2.771617120828098,3060,0.2760174147356688,1
1761072570368014592,3.337014675140381,0.0732383280992508,-0.2693879604339599,0.1119976267218589,-0.3173575103282928,0.8406137228012085,-0.4389224052429199,0.0385641753673553,0.011818528175354,-0.010815143585205,0.2993266441288893,-0.3499047056612053,0.3976248204552663,-0.7936402466938604,-0.9984153227019192,-0.626020864663763,-2.7696313121199525,3070,0.30079427242032236,1
1761072570378060544,3.3470606803894043,0.0761145129799842,-0.2852174937725067,0.12558613717556,-0.3176657855510711,0.8406341671943665,-0.4386599659919739,0.048332929611206,0.0177031755447387,-0.0104824602603912,0.3003806855329572,-0.3506525756860951,0.3971306917996069,-0.7931590958764442,-0.9984530599622424,-0.6267660180553785,-2.767356101407141,3080,0.3208026117267886,1
1761072570388106496,3.3571066856384277,0.0833449959754943,-0.3016004860401153,0.1428199857473373,-0.3178254067897796,0.840640127658844,-0.4385328590869903,0.0514527857303619,0.0129364728927612,-0.0084275305271148,0.3015551334043537,-0.3513517998902275,0.3965923342756399,-0.7926732157265367,-0.9984640581764032,-0.6271423901070619,-2.7645846332188695,3090,0.34395754078470003,1
1761072570398152704,3.367152690887451,0.1119937524199485,-0.3229356408119201,0.1652040332555771,-0.3177814483642578,0.8406869769096375,-0.4384748339653015,0.05507093667984,0.033916175365448,0.0011579990386962,0.3028605683205647,-0.352000492730292,0.3960533322472783,-0.7921570319562029,-0.9985506292470372,-0.6271395642975296,-2.761308084698252,3100,0.37963456282537816,1
1761072570408197632,3.377197742462158,0.1493137031793594,-0.3580473065376282,0.2001862525939941,-0.3175598084926605,0.8406821489334106,-0.4386450350284576,0.0611663460731506,0.0504311323165893,-0.0046074986457824,0.3045428444787693,-0.3526881726429481,0.3953334432496771,-0.7915657379845122,-0.998541642110132,-0.6266236834198765,-2.7567993989251938,3110,0.4365397936083382,1
1761072570418243584,3.3872437477111816,0.1978340148925781,-0.398652970790863,0.2304525524377823,-0.3172517716884613,0.8405633568763733,-0.4390950798988342,0.0689760148525238,0.0564092993736267,-0.0105356574058532,0.3065030179243685,-0.3533927997336815,0.3944185531236102,-0.7909509193550704,-0.998322332950356,-0.6256759202856783,-2.7513225730777573,3120,0.5011694997642876,1
1761072570428289536,3.397289752960205,0.2139344215393066,-0.4508166015148163,0.2701490819454193,-0.3168543875217438,0.8404574394226074,-0.4395846128463745,0.0758570730686187,0.07047700881958,0.000299334526062,0.308746224090819,-0.354183280766375,0.3933978796195064,-0.7902329687680902,-0.9981268645381468,-0.6245524095819597,-2.745044617518342,3130,0.5674364029533876,1
1761072570438335744,3.4073357582092285,0.2367933392524719,-0.4930574297904968,0.2983861267566681,-0.3165705800056457,0.8403623104095459,-0.4399708807468414,0.0775873959064483,0.0963747501373291,0.0093678832054138,0.3112019605473949,-0.3551602692963979,0.3922699932723296,-0.7893914429969453,-0.9979512888284646,-0.623710950018455,-2.7383689457366147,3140,0.6230658032878978,1
1761072570448381184,3.4173812866210938,0.275044322013855,-0.5363828539848328,0.3390270471572876,-0.3161695003509521,0.8402393460273743,-0.4404937326908111,0.0776593685150146,0.1140453219413757,0.0117675065994262,0.3139267534361325,-0.3561738140607193,0.3910157966042618,-0.7884776026082083,-0.9977245452672348,-0.6225473526169053,-2.7308344810250764,3150,0.6915889558293751,1
1761072570458427136,3.427427291870117,0.3010245859622955,-0.5852548480033875,0.3852488994598388,-0.3156295120716095,0.8401061296463013,-0.4411346912384033,0.0858473479747772,0.1338929533958435,0.0186492800712585,0.3169704248719478,-0.3572428918698599,0.3896282539533744,-0.7874625164147819,-0.9974788947431592,-0.6210495449932145,-2.722314517467292,3160,0.7625980284529043,1
1761072570468473088,3.4374732971191406,0.3382571637630462,-0.632071852684021,0.4363653361797333,-0.3148717880249023,0.839980959892273,-0.4419137835502624,0.0993261337280273,0.1458131074905395,0.0249063372611999,0.3203540266560411,-0.3583344946718915,0.3881230396598178,-0.786339780742231,-0.997248147490947,-0.6190783650034223,-2.71269187018681,3170,0.8392540988351994,1
