time,seconds_elapsed,rotationRateX,rotationRateY,rotationRateZ,gravityX,gravityY,gravityZ,accelerationX,accelerationY,accelerationZ,quaternionW,quaternionX,quaternionY,quaternionZ,pitch,roll,yaw,timestamp,omega_mag,isSwing
1761602706756056832,0.6680567264556885,0.0599427446722984,-0.5777494311332703,1.1771634817123413,0.0728993117809295,0.5769347548484802,-0.8135305643081665,-0.0549854934215545,0.0898895859718322,0.063362717628479,0.545219751097508,-0.2048320031079339,-0.2264477130399566,0.7807052602893901,-0.6149708939646783,0.0893698785724063,1.9507297362579237,0,1.3126695701854245,0
1761602706766100736,0.6781005859375,0.1095470488071441,-0.5155723094940186,1.1734461784362793,0.0753073915839195,0.5754414796829224,-0.8143684267997742,-0.0560965836048126,0.0831431150436401,0.0695716738700866,0.5400395408842107,-0.2038420743185919,-0.2264159782604859,0.7845646012849371,-0.613143860571123,0.0922111203505398,1.965099189625602,10,1.2863869153198269,0
1761602706776145664,0.688145637512207,0.3514304459095001,-0.5981036424636841,1.0237447023391724,0.0772419795393943,0.5727853775024414,-0.8160579800605774,-0.0768147408962249,0.1010274887084961,0.0636165738105773,0.5352831435448445,-0.2023593223558318,-0.2258798402931068,0.788353402558879,-0.609899825897228,0.094371401636858,1.9783480233209367,20,1.2366424467112542,0
1761602706786189824,0.6981897354125977,0.515562117099762,-0.6819719076156616,0.9594385027885436,0.0774966776371002,0.5682665109634399,-0.8191870450973511,-0.0902988091111183,0.077943205833435,-0.0247613191604614,0.5311370746285383,-0.1996582313532864,-0.2248178323332276,0.7921407616140242,-0.604397621733475,0.0943212190759222,1.9897015914486895,30,1.2850728461836143,0
1761602706796234752,0.7082347869873047,0.2317156642675399,-0.5745468139648438,1.0275436639785769,0.0779000371694564,0.5642143487930298,-0.8219451308250427,-0.0518532916903495,-0.0424858331680297,-0.083831787109375,0.5268586140671181,-0.1971841086173278,-0.2239326967882116,0.7958597233151903,-0.5994813299241326,0.0944929806441286,2.0012868756775446,40,1.1998508956893847,0
1761602706806278656,0.7182786464691162,-0.1862136721611023,-0.4635816812515259,1.00964093208313,0.0794706046581268,0.5632873177528381,-0.8224304914474487,-0.0350828096270561,-0.0843444466590881,-0.0330687761306762,0.5221796169927722,-0.1962440938296832,-0.2242164630180577,0.7990893783597407,-0.5983589777393454,0.0963298963828858,2.0137062356994657,50,1.1264805007763807,0
1761602706816323840,0.7283236980438232,-0.3640671372413635,-0.4470955729484558,0.8966571092605591,0.0811697244644165,0.5649101138114929,-0.8211504220962524,-0.0571676641702652,-0.0819694399833679,0.0072008371353149,0.5175591048965291,-0.1962755791401509,-0.2256117707767393,0.8016906147542261,-0.6003243054375886,0.0985287094317607,2.0255810815095714,60,1.0660362579934755,0
1761602706826367744,0.7383677959442139,-0.4391786754131317,-0.4994693100452423,0.8388441801071167,0.0821725651621818,0.5675212740898132,-0.8192480206489563,-0.0741769596934318,-0.110184907913208,-0.0140802264213562,0.5131641588485083,-0.1963952764021589,-0.2276068927823967,0.8039194457888768,-0.6034921833647272,0.0999680784730892,2.0364790755691877,70,1.0705171923487657,0
1761602706836412672,0.7484126091003418,-0.4917293488979339,-0.5401843786239624,0.8501001000404358,0.0827396139502525,0.5705927610397339,-0.8170545101165771,-0.0632388815283775,-0.1284388303756714,-0.0076982975006103,0.5087254919512618,-0.1964541119445981,-0.2299533289008886,0.8060555535869455,-0.6072274488634702,0.1009216868882811,2.0472456852978382,80,1.1208332148744082,0
1761602706846456832,0.7584567070007324,-0.4886922836303711,-0.4947468042373657,0.8469905853271484,0.0834050253033638,0.5740971565246582,-0.8145281672477722,-0.0518803671002388,-0.1058812141418457,0.0265032052993774,0.504171142957192,-0.1966601476462285,-0.2325096056115038,0.8081309248193198,-0.6115010513837102,0.1020410957684639,2.0582499089831687,90,1.0958957979734107,0
1761602706856501760,0.7685017585754395,-0.5157415270805359,-0.4800836741924286,0.92986798286438,0.0845429301261901,0.5772971510887146,-0.8121456503868103,-0.0579163581132888,-0.0544089674949646,0.0013241171836853,0.4995236932068921,-0.1969360234945379,-0.2348262830404019,0.8102771408875477,-0.6154146625304233,0.1037246479970035,2.0696778050130975,100,1.1666722429790366,0
1761602706866545664,0.778545618057251,-0.4215620458126068,-0.6411535739898682,0.9253517985343932,0.0855701342225074,0.5805456638336182,-0.8097187876701355,-0.0082233399152755,0.0314233303070068,-0.0214579701423645,0.4945604130365781,-0.1970729181037464,-0.2372822502250327,0.812569667591882,-0.6193986699374782,0.1052880384697209,2.0818195449379453,110,1.202109984552382,0
1761602706876590848,0.788590669631958,-0.0578669160604476,-0.8261891603469849,0.8233063817024231,0.0846279039978981,0.5817000865936279,-0.8089889883995056,0.0389530062675476,0.065089464187622,-0.0189834237098693,0.4898707021524168,-0.1956589560583491,-0.2392134496393138,0.8151817649863975,-0.6208171958427944,0.1042303645069338,2.092842326152107,120,1.167805851501498,0
1761602706886635776,0.798635721206665,-0.0682524442672729,-0.7807327508926392,0.875471830368042,0.0828528478741645,0.5812591314315796,-0.8094894289970398,0.0184960216283798,-0.0348419547080993,-0.0203750133514404,0.485435937208622,-0.1933895526427835,-0.2405322318951984,0.8179832489362368,-0.620275240090839,0.1019968017074665,2.103120243866638,130,1.175011893655896,0
1761602706896679680,0.8086795806884766,-0.3379872441291809,-0.6825371980667114,1.06915020942688,0.0826304107904434,0.5821085572242737,-0.8089016079902649,-0.027698777616024,-0.0907298326492309,-0.0415316820144653,0.4803532101509392,-0.1920727522188581,-0.2421925821445975,0.8207993432130017,-0.621319480196441,0.1017982652499879,2.115329770194565,140,1.3126974420087583,0
1761602706906724608,0.8187246322631836,-0.4554651379585266,-0.7818408608436584,1.1033326387405396,0.0832917988300323,0.5845227837562561,-0.8070907592773438,-0.0747163444757461,-0.0576826333999633,-0.0876387953758239,0.4745279288462047,-0.1914536840601674,-0.2445405946576051,0.8236312718273922,-0.62429180016805,0.1028359937809404,2.1294203756596817,150,1.4269080332279633,0
1761602706916768768,0.8287687301635742,-0.332161545753479,-0.9707985520362854,0.926252543926239,0.0822267159819603,0.5869504809379578,-0.8054364323616028,-0.1151857003569603,-0.0301878452301025,-0.1339708566665649,0.4688231513971675,-0.1900523770247389,-0.2473092699703407,0.8263915056748032,-0.627287067648072,0.1017371737715227,2.142539270767602,160,1.382289729486159,0
1761602706926813952,0.8388137817382812,-0.2877584099769592,-1.0825644731521606,0.7808336019515991,0.0787982046604156,0.588658332824707,-0.8045322895050049,-0.1280993521213531,-0.119664192199707,-0.1559169292449951,0.4637280997913582,-0.187472547729062,-0.2501757416171964,0.8289887058390307,-0.6293981070490974,0.097631485350562,2.153347941297997,170,1.365449323475753,0
1761602706936857600,0.8488576412200928,-0.4925328195095062,-1.0859408378601074,0.7660404443740845,0.0745589360594749,0.5910503268241882,-0.8031814694404602,-0.129963606595993,-0.2414409518241882,-0.1465102434158325,0.4588236182606413,-0.1847674197672944,-0.2535157823933039,0.8313072531909275,-0.6323603336210046,0.0925642213119177,2.1632470522469665,180,1.417276982118577,0
1761602706946902784,0.8589026927947998,-0.895538866519928,-1.0119811296463013,0.7462904453277588,0.0706839486956596,0.5960501432418823,-0.7998299598693848,-0.1554922759532928,-0.2979392409324646,-0.1273702979087829,0.453662199380051,-0.1829586070786101,-0.2580914084476593,0.8331299198647631,-0.6385728928695314,0.0881447278897273,2.1734857746005276,190,1.5437114681816373,0
1761602706956946944,0.8689467906951904,-1.3329004049301147,-0.9409909248352052,0.6632013916969299,0.0670935735106468,0.6044737696647644,-0.7937946319580078,-0.1740271747112274,-0.3245055079460144,-0.0744152069091796,0.4484037880407159,-0.1823037098942983,-0.2643256168491434,0.8341651161294072,-0.6491051223713525,0.0843221638439621,2.183512005641329,200,1.7612278376274386,0
1761602706966991616,0.8789916038513184,-1.7459217309951782,-0.8398134112358093,0.570694625377655,0.0638078227639198,0.6163198947906494,-0.7849066257476807,-0.1696885526180267,-0.3261587619781494,-0.0448815822601318,0.4431988537986586,-0.18285887773226,-0.2722302785839091,0.8342830392349293,-0.664060939650153,0.0811151523607154,2.1929326792086563,210,2.019708298712383,0
1761602706977035776,0.889035701751709,-1.9677813053131104,-0.7102855443954468,0.5096316337585449,0.0611456707119941,0.6306142807006836,-0.7736839652061462,-0.1610144674777984,-0.2938375473022461,-0.0396399497985839,0.4381461580791215,-0.1845151185519265,-0.281268869238332,0.8335886587292289,-0.6823444304883196,0.0788679117477127,2.201751037490547,220,2.153228557827596,0
1761602706987080704,0.899080753326416,-1.968789339065552,-0.6485782265663147,0.4616779386997223,0.0590330846607685,0.6456228494644165,-0.7613713145256042,-0.1654021143913269,-0.232063889503479,-0.0620387196540832,0.4332918321306943,-0.1867205035745643,-0.29060248066961,0.832432546475191,-0.7018386363430119,0.0773803977316888,2.210085906445045,230,2.123659976709102,0
1761602706997125888,0.909125804901123,-1.6470890045166016,-0.6738593578338623,0.3741620481014251,0.0570496581494808,0.659225583076477,-0.7497779130935669,-0.1723908334970474,-0.1380769610404968,-0.1072471737861633,0.4288806360450657,-0.1886815273510475,-0.299182781910847,0.8312341633503553,-0.7197884407250249,0.0759424156316902,2.217517833630602,240,1.818511990936328,0
1761602707007169792,0.9191696643829346,-1.2694485187530518,-0.8152899742126465,0.2607534527778625,0.0534719415009021,0.6700199842453003,-0.7404146790504456,-0.1896261125802993,-0.034888207912445,-0.1917294263839721,0.4250170552122119,-0.1891349119690805,-0.3066278528466915,0.830402152657817,-0.7342357083496076,0.072093747306012,2.2232076486724996,250,1.5310746705995604,0
1761602707017214720,0.9292147159576416,-0.9247475862503052,-1.0291482210159302,0.2216946482658386,0.0482575222849845,0.6778685450553894,-0.7335975766181946,-0.1824432909488678,0.005343735218048,-0.2437278032302856,0.4215869139776772,-0.1879553877218734,-0.3128481578642013,0.8300983154980767,-0.7448594966480204,0.0656873668680842,2.227405019748959,260,1.4012325560611747,0
1761602707027258624,0.9392585754394532,-1.0131882429122925,-1.2296171188354492,0.2639118731021881,0.0415316596627235,0.6847629547119141,-0.7275814414024353,-0.1773654073476791,-0.0827579498291015,-0.2884707450866699,0.417856658687096,-0.185583853635333,-0.3190108242229815,0.830172581711055,-0.7542784103054258,0.0570199244965386,2.2315558966175044,270,1.6149793036671385,0
1761602707037303808,0.9493036270141602,-1.3280494213104248,-1.198312520980835,0.2444395571947097,0.0343741811811924,0.6929281949996948,-0.7201867699623108,-0.1385459452867508,-0.2005575895309448,-0.2434362769126892,0.4137492149396684,-0.1832528485375855,-0.3260751443401899,0.8300030590045117,-0.765542406251931,0.0476933390968902,2.23591888422227,280,1.8053860696548936,0
1761602707047347712,0.9593477249145508,-1.8827989101409912,-1.0218322277069092,0.147139623761177,0.0278023481369018,0.704463005065918,-0.7091959118843079,-0.1922157853841781,-0.2802076339721679,-0.1684590578079223,0.4095638180179609,-0.1822870365953039,-0.3349230808791534,0.8287673826401079,-0.7816662465785911,0.0391825701823904,2.2397702067441045,290,2.1472593943185228,0
1761602707057392896,0.9693927764892578,-2.161475896835327,-0.9096665978431702,0.0258038844913244,0.0215653218328952,0.7188205122947693,-0.6948611736297607,-0.257405161857605,-0.3488711714744568,-0.0750514864921569,0.4057331307507815,-0.1825926682168752,-0.3452960037601714,0.8263239188453434,-0.8021041595229508,0.0310254795006556,2.2418901674316625,300,2.3452371334870366,0
1761602707067436800,0.9794366359710692,-2.377049207687378,-0.8057649731636047,0.041788175702095,0.0158743094652891,0.7343869805335999,-0.6785452961921692,-0.285619169473648,-0.4075894951820373,0.0013297796249389,0.4020166858423381,-0.1836730511308628,-0.3563587432310147,0.8231981477664521,-0.8247630496615577,0.0233903524583186,2.243241512282872,310,2.510252254131653,0
1761602707077481728,0.9894816875457764,-2.455883026123047,-0.7013640403747559,-0.0497294925153255,0.0109093394130468,0.7507878541946411,-0.6604532599449158,-0.2845909893512726,-0.3612310290336609,0.0671305656433105,0.3983735269810267,-0.185511916931433,-0.3679112566029862,0.8194663573799591,-0.8492540289998834,0.0165164566015397,2.244067505458394,320,2.5545539684171734,0
1761602707087525888,0.999525785446167,-2.2750818729400635,-0.7059577703475952,-0.2507382333278656,0.0051051755435764,0.7663835883140564,-0.6423628926277161,-0.2688533365726471,-0.2847857475280761,0.0263503789901733,0.3954042147228901,-0.1870438899377607,-0.3792533831524562,0.8153753329213673,-0.8731924139078922,0.0079473272980152,2.2422544603842933,330,2.3952543839323193,0
1761602707097570560,1.009570598602295,-1.9294158220291135,-0.6947579383850098,-0.3928848206996918,-0.0018729453440755,0.7798287272453308,-0.6259902119636536,-0.2312203347682953,-0.2057778239250183,-0.0320145487785339,0.3934320000051751,-0.1877563736814135,-0.389554160368662,0.8112992213820525,-0.8943921336485339,-0.0029919632981516,2.2371023045318728,340,2.0879876650932347,0
1761602707107614720,1.0196146965026855,-1.4914706945419312,-0.7575821280479431,-0.439039796590805,-0.0096295969560742,0.790469765663147,-0.6124253273010254,-0.2298876196146011,-0.1010472178459167,-0.1304030418395996,0.3920927073425744,-0.187394118068253,-0.3983349977113743,0.8077598749262668,-0.9115756211130064,-0.0157224111854781,2.230074010812035,350,1.7295003487728866,0
1761602707117659904,1.0296597480773926,-1.0745524168014526,-0.8829549551010132,-0.4873817563056946,-0.0183153487741947,0.7981827855110168,-0.6021369099617004,-0.199778527021408,-0.0563767552375793,-0.206624686717987,0.3911161363182188,-0.1856504700440812,-0.4055433978915103,0.8050445137635076,-0.9242725780122428,-0.030407874535128,2.221947601009308,360,1.4737073405431957,0
1761602707127704832,1.0397047996520996,-0.8389646410942078,-0.9537758231163024,-0.5274623036384583,-0.0280083678662776,0.8037487864494324,-0.5943092703819275,-0.148840993642807,-0.0826336741447448,-0.2756859064102173,0.3903874285205435,-0.1827021113684668,-0.4116616502211195,0.8029647147601746,-0.9335694597872214,-0.0470927562547497,2.2127927824017255,370,1.3754150179226277,0
1761602707137748736,1.0497486591339111,-0.7636333107948303,-0.8773714900016785,-0.5199653506278992,-0.0377663299441337,0.8082642555236816,-0.5876075029373169,-0.1361991316080093,-0.1254639625549316,-0.2988365888595581,0.3898715497865799,-0.1794294972684066,-0.417134627364331,0.8011266867641945,-0.9411983217962544,-0.0641830739501098,2.203105265965911,380,1.2740802685375963,0
1761602707147793664,1.0597937107086182,-0.8461002111434937,-0.749721109867096,-0.521930456161499,-0.0467376820743083,0.8127152323722839,-0.5807836055755615,-0.14788818359375,-0.1531082987785339,-0.2674219608306885,0.3895372420376811,-0.1766415505383616,-0.4223812978982591,0.799157412334002,-0.9487971086991304,-0.0803004457885789,2.1932509018684323,390,1.245142044485835,0
1761602707157837824,1.0698378086090088,-0.976054847240448,-0.6767370700836182,-0.5611331462860107,-0.0552970953285694,0.8177328109741211,-0.5729357004165649,-0.1300666779279709,-0.1579732298851013,-0.23727548122406,0.3893697603826671,-0.1744132112598798,-0.4279160811452669,0.796780437120731,-0.9574610395571254,-0.0962173323615615,2.18252837366544,400,1.3135929867001315,0
1761602707167882752,1.0798826217651367,-1.0145620107650757,-0.6353334188461304,-0.6237776279449463,-0.0639263466000557,0.8230853080749512,-0.5643084645271301,-0.0751727893948555,-0.1746020317077636,-0.2105175852775573,0.3894572397364985,-0.1724706637494154,-0.4337045488015935,0.7940260599780943,-0.9668225221252422,-0.1128017475291721,2.1703194422075947,410,1.3498456044729745,0
1761602707177926656,1.0899267196655271,-1.0266587734222412,-0.6286468505859375,-0.6123867034912109,-0.0726269334554672,0.8283832669258118,-0.5554335117340088,-0.0212756395339965,-0.2001179456710815,-0.1816880106925964,0.3896756251355946,-0.1705918238083826,-0.4395243703743127,0.7911192084754217,-0.9762153551044174,-0.1300195462739449,2.157127684707667,420,1.3506452437295706,0
1761602707187971840,1.0999717712402344,-1.0473496913909912,-0.5966494679450989,-0.5361436009407043,-0.0808406397700309,0.8336923122406006,-0.546280026435852,0.0180354714393615,-0.1898325085639953,-0.1545255780220031,0.3897011004669276,-0.1689031154171496,-0.4453444859722856,0.7882087630197132,-0.98576051972817,-0.1469176102624999,2.144246037304977,430,1.3192353559868077,0
1761602707198015744,1.110015630722046,-0.9332131147384644,-0.4241053164005279,-0.4764725565910339,-0.0878539904952049,0.8386940360069275,-0.5374701023101807,0.0386443883180618,-0.1488136053085327,-0.1094415187835693,0.3896749697314858,-0.1676881612627325,-0.4507167948943318,0.7854225283016653,-0.9948807119546916,-0.1620254780458408,2.132379347266862,440,1.1303884881329314,0
1761602707208060672,1.120060682296753,-0.7908711433410645,-0.3450941443443298,-0.4450789391994476,-0.0937831997871398,0.842890739440918,-0.5298490524291992,0.0345180630683898,-0.0881757736206054,-0.1271638870239257,0.3899296281840656,-0.1668454460435176,-0.455234092337975,0.7828662083349953,-1.0026331091239906,-0.1751854248404231,2.121196738163777,450,0.9709080265139707,0
1761602707218104832,1.1301047801971436,-0.6489691138267517,-0.4264782071113586,-0.3698001503944397,-0.0992519631981849,0.8463101983070374,-0.5233624577522278,0.055199809372425,0.0126222968101501,-0.1995684504508972,0.3900419018558149,-0.165821869386274,-0.4591534434728238,0.7807359903587768,-1.009019956628339,-0.1874172473498803,2.111268427181304,460,0.8601143662756416,0
1761602707228149760,1.1401495933532717,-0.4929547905921936,-0.4553498029708862,-0.2748755216598511,-0.1043659299612045,0.8489398956298828,-0.5180819630622864,0.1188159957528114,0.0743236541748046,-0.2265774607658386,0.3898417672419695,-0.1644418145167962,-0.4625125960887185,0.7791434426577256,-1.0139761215863414,-0.1987862821813675,2.103083161377646,470,0.7251926785628724,0
1761602707238193664,1.150193691253662,-0.4931135773658752,-0.4262797236442566,-0.0805938392877578,-0.1082360222935676,0.8512522578239441,-0.5134730339050293,0.1474663615226745,0.0823109745979309,-0.2779698371887207,0.389101509806684,-0.1632088897607068,-0.4654313514709114,0.7780337783811676,-1.018367089919637,-0.2077506543145842,2.097851136170141,480,0.6567882230246944,0
1761602707248238848,1.1602387428283691,-0.543427050113678,-0.2671523988246918,0.1005703508853912,-0.1099171340465545,0.8539188504219055,-0.5086656212806702,0.1717610359191894,0.0994197130203247,-0.2758802771568298,0.3878077958402279,-0.1628830403426375,-0.4681199781833592,0.7771343725371603,-1.0234698244798683,-0.2128169880101991,2.0960255327107413,490,0.6138385443015547,0
1761602707258283776,1.1702837944030762,-0.5928517580032349,-0.162130206823349,0.1650247871875763,-0.1097638085484504,0.8569940328598022,-0.5035008192062378,0.1562573462724685,0.1119542717933654,-0.2767878174781799,0.386293519742215,-0.1635181448261786,-0.4706499729859076,0.7762265783756582,-1.02940794076795,-0.21464302506047,2.096342594767052,500,0.6363902822312837,0
1761602707268327680,1.1803276538848877,-0.4272167086601257,-0.1925251334905624,0.1875860393047332,-0.1091058701276779,0.8598377704620361,-0.4987732768058777,0.1339624524116516,0.1121317744255065,-0.2577879726886749,0.3847890445951359,-0.1643010023812231,-0.4728832160702573,0.7754508108605265,-1.034951897985823,-0.2153561953898962,2.0974600428593573,510,0.5047460404262588,0
1761602707278372864,1.1903727054595947,-0.1573533564805984,-0.1624574363231659,0.3424594104290008,-0.1078846901655197,0.8615726828575134,-0.4960375726222992,0.1441853642463684,0.0653071403503418,-0.2341260015964508,0.3830964186102169,-0.1647090444664064,-0.4741857733809153,0.7754068726053698,-1.038359682065081,-0.2141577776514845,2.101124879819485,520,0.41040339326543657,0
1761602707288416768,1.2004168033599854,0.1437135338783264,0.0464560948312282,0.5681522488594055,-0.1042063981294632,0.862132728099823,-0.4958508312702179,0.1594584882259369,0.0866739153861999,-0.1981951594352722,0.3811551831880526,-0.1655985148445464,-0.4739743779578009,0.7763028066982082,-1.0394639507186942,-0.207142312197377,2.109954960065443,530,0.5878849602182087,0
1761602707298461696,1.2104616165161133,0.5388798713684082,-0.001982111018151,0.5718995928764343,-0.0988724008202552,0.8610523343086243,-0.4988116323947906,0.1193497255444526,0.1843730211257934,-0.1937848031520843,0.3792387766896395,-0.1665337317045659,-0.472081242703138,0.7781925719156756,-1.037335473614675,-0.1956794982138856,2.1227337904839443,540,0.7857891503847274,0
1761602707308505856,1.220505714416504,0.9545279741287231,-0.3464129865169525,0.4062011837959289,-0.0955455005168914,0.8577336668968201,-0.5051376223564148,0.066309668123722,0.1934290528297424,-0.2117813229560852,0.3775581499766323,-0.1655793910036462,-0.4690571991849978,0.7810369299049458,-1.0308449643865278,-0.1869389840223001,2.134912626927422,550,1.09367500306951,0
1761602707318550784,1.230550765991211,1.122839093208313,-0.6751124858856201,0.3984730839729309,-0.0948681384325027,0.8526932597160339,-0.5137258172035217,0.0432934463024139,0.0232069492340087,-0.1827157735824585,0.3756774680729414,-0.1624442960850546,-0.4655630377024571,0.7846842030732414,-1.0211192130763302,-0.1826096443856057,2.1460910107829942,560,1.3694251700937976,0
1761602707328594688,1.2405946254730225,1.0741593837738037,-0.639323890209198,0.5452987551689148,-0.0944515988230705,0.8473745584487915,-0.522527813911438,0.0127255395054817,-0.171211838722229,-0.085260272026062,0.3731321576872688,-0.1587421862127261,-0.4621006620522709,0.7886927868446065,-1.0110212144922504,-0.1788280180523819,2.158634542601697,570,1.363783029198673,0
1761602707338639616,1.2506396770477295,0.9008954763412476,-0.3501242399215698,0.6189442276954651,-0.0920602977275848,0.8426674604415894,-0.5305057168006897,-0.0653951168060302,-0.2592019438743591,0.0950809717178344,0.3704231201139354,-0.1562795443727251,-0.4586107751188714,0.7924894216728628,-1.0022183421858128,-0.1718219916561379,2.172829301570369,580,1.1477332441252697,0
1761602707348683520,1.260683536529541,0.7089307904243469,-0.1129082292318344,0.5099464058876038,-0.0883877798914909,0.8389160633087158,-0.5370358228683472,-0.2083651572465896,-0.2147552967071533,0.1753720045089721,0.3682477749321553,-0.1552412974394399,-0.4553924037865514,0.7955573188682645,-0.9952885440103834,-0.1631221223009569,2.185811441049647,590,0.8805546381217025,0
1761602707358728704,1.270728588104248,0.7771294713020325,0.0067783235572278,0.3505650162696838,-0.0850343182682991,0.8353471159934998,-0.5431061387062073,-0.293032705783844,-0.128270149230957,0.1283875703811645,0.3669936134974574,-0.1546920554231264,-0.4522358959696312,0.7980405152215574,-0.9887639420288032,-0.155309441922701,2.1956962674908587,600,0.8525678808567602,0
1761602707368773632,1.280773639678955,1.0365909337997437,-0.0406262092292308,0.2300929278135299,-0.0826920270919799,0.8306820392608643,-0.5505719184875488,-0.2824660837650299,-0.0885708332061767,0.0377240180969238,0.3665084602608734,-0.1536522599690807,-0.4484473488463633,0.8005982740708495,-0.9803316357880434,-0.1490786571576593,2.203307077655411,610,1.062597764133712,0
1761602707378817792,1.2908177375793457,1.4714351892471311,-0.1604548096656799,0.2066037654876709,-0.0815022513270378,0.8238702416419983,-0.5608879327774048,-0.1987254023551941,-0.0941033363342285,-0.0714515447616577,0.3664204999403723,-0.1514311541028987,-0.4434237533390351,0.8038532585313767,-0.9682059600311146,-0.1442993679538008,2.2102361537935047,620,1.4945074031309697,0
1761602707388862720,1.3008625507354736,1.7086498737335205,-0.3155964612960815,0.3388422131538391,-0.0806374922394752,0.8149019479751587,-0.5739619135856628,-0.1036886423826217,-0.1201693415641784,-0.1756107807159423,0.3660178939614878,-0.148101600009389,-0.4371326622885527,0.8080914088273257,-0.952560039352204,-0.1395791958627737,2.2189045231513465,630,1.7702823398563226,0
1761602707398906624,1.3109066486358645,1.6424143314361572,-0.3700660169124603,0.4738557040691376,-0.079346053302288,0.8053792119026184,-0.5874252915382385,-0.0436550453305244,-0.0898488163948059,-0.1895674467086792,0.3648255115328247,-0.1444677932052177,-0.4306000437746584,0.8127822182480895,-0.9363148940122752,-0.1342616839452148,2.2298159524729217,640,1.749003408018175,0
1761602707408951808,1.3209517002105713,1.4380830526351929,-0.3468696177005768,0.4381685554981231,-0.0777594074606895,0.7965452671051025,-0.5995573997497559,-0.0293572843074798,-0.0950987339019775,-0.0765137672424316,0.3632502355254728,-0.1411638553497948,-0.4246104703477198,0.8172074167710011,-0.9215592186474956,-0.1289747443659205,2.2409554299152057,650,1.5428522550742216,0
1761602707418995712,1.3309955596923828,1.1509748697280884,-0.2055940628051757,0.361230731010437,-0.076261468231678,0.7889388203620911,-0.6097210645675659,-0.0671711713075637,-0.1826613545417785,0.0163220167160034,0.3619377332220161,-0.1384987590136819,-0.4194729506261994,0.8208907956461036,-0.9090801018825504,-0.1244298111592994,2.2501927423368424,660,1.2237237067380298,0
1761602707429040640,1.3410406112670898,0.8210415244102478,-0.0534063875675201,0.3370817005634308,-0.0874976515769958,0.7732177972793579,-0.6280752420425415,-0.0827446654438972,-0.2499786615371704,0.088905930519104,0.3649085828069848,-0.1289588639466536,-0.4114996992677976,0.8251541927475444,-0.8838998364657153,-0.1384199083909133,2.2432675359888044,670,0.8891487501501929,0
1761602707439084800,1.3510847091674805,0.6933965682983398,0.0201042145490646,0.3731436431407928,-0.0913979336619377,0.7636551856994629,-0.6391221880912781,-0.0853446274995803,-0.2693009376525879,0.132438838481903,0.365870721646048,-0.1242831154585023,-0.4061928381020946,0.8280698549262501,-0.8689558042565818,-0.1420423575770573,2.2435031523549935,680,0.7876796041455767,0
1761602707449129728,1.3611297607421875,0.7486329078674316,0.0389703139662742,0.3740981221199035,-0.0922769233584404,0.7562386989593506,-0.647756040096283,-0.0819936916232109,-0.2114999294281005,0.1700797080993652,0.3659951505905934,-0.1214578448165668,-0.4017087993818564,0.8306174948489744,-0.8575451999978781,-0.1415041932044806,2.2467507660153103,690,0.8378062551009717,0
1761602707459173632,1.371173620223999,0.8428683280944824,-0.0714944079518318,0.3424837589263916,-0.0924163311719894,0.7492101788520813,-0.6558530926704407,-0.0564026311039924,-0.095523715019226,0.1945341825485229,0.3657809569409535,-0.1190024814902175,-0.3973812628576924,0.8331450972170285,-0.8468687977433582,-0.1399884432006331,2.251019358972443,700,0.9125971696216911,0
1761602707469218816,1.381218671798706,0.9306541085243224,-0.2672524452209472,0.3206077516078949,-0.0932504013180732,0.7420428991317749,-0.6638348698616028,-0.0056570842862129,-0.0230029821395874,0.118638277053833,0.3652000896556393,-0.1160309294170397,-0.3932167325312237,0.835790832645197,-0.836112730067162,-0.1395591169480041,2.2556135646616906,710,1.0199658178492288,0
1761602707479263744,1.391263723373413,0.8792436718940735,-0.3655250072479248,0.3291164338588714,-0.0948306247591972,0.7348992228507996,-0.6715134978294373,0.0645571872591972,-0.052694022655487,0.0700577497482299,0.3642169344154454,-0.11256031010122,-0.3893243326860258,0.838512289614854,-0.8255180607214481,-0.1402915426600157,2.2605301943852014,720,1.007469896585178,0
1761602707489307648,1.4013075828552246,0.6388041973114014,-0.3370608687400818,0.3140629231929779,-0.0963310003280639,0.7289688587188721,-0.6777350306510925,0.0835899114608764,-0.101619005203247,0.0807044506072998,0.362973917680215,-0.1094282776972115,-0.3862096923246431,0.8409028068831954,-0.8168144150281588,-0.1411909129864618,2.265435415469532,730,0.7876016451627058,0
1761602707499352576,1.4113526344299316,0.4216459989547729,-0.2948172390460968,0.2489129453897476,-0.0975773558020591,0.7247850894927979,-0.6820302605628967,0.0481236055493354,-0.0976183414459228,0.094460129737854,0.3617752164111185,-0.1070024480700838,-0.3841032866850625,0.8426944839993871,-0.8107224443547584,-0.1421046157300389,2.269500801595965,740,0.571541955814209,0
1761602707509396736,1.4213967323303225,0.3380240499973297,-0.2945897877216339,0.1750019788742065,-0.0990015566349029,0.721692681312561,-0.6850972771644592,0.0142695233225822,-0.0395180583000183,0.072609543800354,0.3607876585422945,-0.1049303759179392,-0.3826760691407528,0.8440265588678473,-0.806244556870182,-0.1435138320789974,2.2723959038093615,750,0.48132015750055884,0
1761602707519441664,1.4314415454864502,0.3698550164699554,-0.3337133228778839,0.1289260983467102,-0.100896343588829,0.7187855839729309,-0.6878715753555298,-0.0007271915674209,0.0508829951286315,0.0210624933242797,0.3599594340126597,-0.1027660650173158,-0.3814490247606913,0.8452012082026549,-0.8020539570608413,-0.145640502128258,2.2745090516132014,760,0.5145670548228826,0
1761602707529485824,1.4414856433868408,0.4389635026454925,-0.3688436150550842,0.1100717112421989,-0.1032846793532371,0.7155296802520752,-0.6909048557281494,-0.0027639046311378,0.1222388744354248,-0.0214974880218505,0.3591902851849197,-0.1002946045393605,-0.3801165208018333,0.8464246278235398,-0.797382011516445,-0.148392988827795,2.2763273599428575,770,0.583823903790765,0
1761602707539530752,1.451530694961548,0.4657403230667114,-0.3535049259662628,0.1178607493638992,-0.1057518720626831,0.7119376063346863,-0.6942343711853027,-0.0144721418619155,0.1424629688262939,-0.0602821707725524,0.3584404787050925,-0.097707108357225,-0.3785975733320415,0.8477249983724018,-0.7922535527505215,-0.1511666951036947,2.278213763132346,780,0.5964653698692972,0
1761602707549574656,1.4615745544433594,0.4019187390804291,-0.2934762239456177,0.1561876237392425,-0.107801005244255,0.7085070610046387,-0.6974213719367981,-0.0508293658494949,0.1262097358703613,-0.0830656290054321,0.3576364735207637,-0.0953590980123006,-0.3770887749612044,0.8490033765951366,-0.7873804361200646,-0.1533571758133696,2.280420489143685,790,0.5215951884888237,0
1761602707559619584,1.4716196060180664,0.2687956094741821,-0.1888899058103561,0.1907078772783279,-0.1089663133025169,0.7058478593826294,-0.699932336807251,-0.0980954691767692,0.1042259931564331,-0.085498571395874,0.3567617512227106,-0.0936426168836131,-0.3758522350530328,0.8501101972606935,-0.7836193375935756,-0.1544414681978396,2.2829896827466953,800,0.3798683596269213,0
1761602707569663744,1.481663703918457,0.1404078304767608,-0.0837267413735389,0.2037674933671951,-0.1092406213283538,0.704171895980835,-0.7015756964683533,-0.1453064978122711,0.081411600112915,-0.0821004509925842,0.3559338022531882,-0.0926678468642747,-0.3749997696398796,0.8509400794373042,-0.781256188794293,-0.1544671572654682,2.2855443853643487,810,0.26123881303009355,0
1761602707579708928,1.491708755493164,0.0231028348207473,-0.0084709376096725,0.2409458458423614,-0.1087699830532074,0.7033693790435791,-0.7024533152580261,-0.1725563108921051,0.0558316707611084,-0.0904696583747863,0.3551151239822129,-0.0923109727572359,-0.3745023705835902,0.8515397517747679,-0.7801265173138809,-0.1536229894031779,2.2881341284256784,820,0.2421990883331989,0
1761602707589753600,1.501753568649292,-0.1004409417510032,0.0536989606916904,0.2753863632678985,-0.1075845211744308,0.7034821510314941,-0.7025229334831238,-0.1705221831798553,0.0624327659606933,-0.0800697803497314,0.3542330361221403,-0.0925346569969123,-0.3744006715404228,0.8519275588780181,-0.7802852311628691,-0.1519596511425167,2.290895658343382,830,0.29800941299414535,0
1761602707599797760,1.5117976665496826,-0.1597872972488403,0.0743383914232254,0.2796957492828369,-0.1060275062918663,0.7043005228042603,-0.7019394636154175,-0.162603497505188,0.1114190816879272,-0.049296498298645,0.3533059482129849,-0.0931191360075336,-0.374645293378411,0.8521412652945173,-0.7814373415711837,-0.1499160555768157,2.2936727246242827,840,0.33058718814916205,0
1761602707609842688,1.5218427181243896,-0.0858126580715179,0.0976029708981514,0.2910035252571106,-0.1043641194701194,0.7050864696502686,-0.7013994455337524,-0.1370909512042999,0.1358253955841064,-0.0138105154037475,0.3524125435963548,-0.0937618095471487,-0.3748453114952605,0.8523526661062905,-0.7825450877518346,-0.1477104108660024,2.2964545482255168,850,0.3187055128571052,0
1761602707619886592,1.5318865776062012,-0.039900567382574,0.1254311352968216,0.3634011745452881,-0.1022746935486793,0.7054783701896667,-0.7013131976127625,-0.1030933558940887,0.1238062977790832,0.0393259525299072,0.3514063439290057,-0.0944538259361371,-0.3747290521060519,0.8527427940750224,-0.7830978507056954,-0.1448122862994185,2.2999483439561934,860,0.3865041249976458,0
1761602707629931776,1.5419316291809082,-0.0135195581242442,0.0603405535221099,0.395080029964447,-0.0998328402638435,0.7057318687438965,-0.7014099359512329,-0.0684715881943702,0.1184258460998535,0.0666290521621704,0.3501340590208799,-0.0951646017742021,-0.3744846376323532,0.8532942235540132,-0.7834556630139831,-0.1413820515410534,2.3043471148183197,870,0.39988997352764144,0
1761602707639975680,1.5519757270812988,0.0753077492117881,0.039605475962162,0.4090157449245453,-0.0976840555667877,0.7057216763496399,-0.7017226815223694,-0.0206631124019622,0.0784427523612976,0.0437484383583068,0.3486906559230138,-0.0955846970090305,-0.3741687063820297,0.8539766858975716,-0.7834412551907789,-0.1383171884908677,2.3090765920837644,880,0.4177723428061217,0
1761602707650020608,1.5620205402374268,0.211782231926918,0.1003998517990112,0.4681853055953979,-0.0948992371559143,0.7049378156661987,-0.7028917074203491,0.0070238932967185,0.0103026032447814,0.0732836127281189,0.3471902464110185,-0.0960809007821871,-0.3732594235688405,0.8549296787980443,-0.782335476336343,-0.1342010963902624,2.3146618179346365,890,0.5235736093202812,0
1761602707660064768,1.5720646381378174,0.2705065608024597,0.0045433323830366,0.5271415710449219,-0.0916480049490928,0.7035418152809143,-0.7047194838523865,-0.0430718287825584,0.0288342237472534,0.0529250502586364,0.3454107025642209,-0.0965222288006608,-0.3719189798382127,0.8561840408848194,-0.780369159564465,-0.1293231153807571,2.321423804431974,900,0.5925138624792048,0
1761602707670109696,1.5821096897125244,0.2841744422912597,-0.1678628027439117,0.5403929352760315,-0.0891124233603477,0.701939046382904,-0.706640362739563,-0.0477436631917953,0.0722308754920959,0.0227566957473754,0.343214940068461,-0.096382781240272,-0.3706618177610487,0.8576268464810716,-0.7781163678141628,-0.1254449969581386,2.3287670658438424,910,0.6332120961359117,0
1761602707680153600,1.592153549194336,0.2483092695474624,-0.2100367695093155,0.4998948276042938,-0.0874619781970977,0.7003730535507202,-0.708398163318634,-0.0108961537480354,0.0328879952430725,0.022240936756134,0.3408395157809889,-0.0957490735249271,-0.3696390760735681,0.859085214867955,-0.775920027196929,-0.1228427757833767,2.3359395571613906,920,0.5963788867445178,0
1761602707690198784,1.602198600769043,0.0957005769014358,-0.2050939500331878,0.4752640724182129,-0.0861161574721336,0.6994549632072449,-0.7094693183898926,-0.0195356979966163,-0.0089642405509948,0.035900592803955,0.3385573992776243,-0.0951874735790111,-0.3690591799351558,0.8602984739248168,-0.7746345529510821,-0.1207901801516283,2.342428451816823,930,0.5264010517571442,0
1761602707700243712,1.61224365234375,-0.1306762844324112,-0.2067987471818924,0.489344835281372,-0.0846702829003334,0.6999304294586182,-0.709174394607544,-0.0551459938287735,-0.0034887790679931,0.0464546680450439,0.3361734441559151,-0.0950075320530794,-0.3693052461124085,0.8611472414832845,-0.7753000508052954,-0.1188302560681114,2.3486560524962043,940,0.5470835228423662,0
1761602707710287872,1.6222877502441406,-0.3107120990753174,-0.2431844472885131,0.4351838529109955,-0.083428755402565,0.7019208073616028,-0.7073519825935364,-0.0733247548341751,0.0339952707290649,0.0605471730232238,0.3337037978213072,-0.0950906562480774,-0.3705155703079882,0.8615786048457457,-0.778090716290692,-0.1174027883955129,2.35436866489772,950,0.5874229053665412,0
1761602707720332544,1.6323325634002686,-0.388586163520813,-0.2950915098190307,0.3491489291191101,-0.0830621570348739,0.704742431640625,-0.7045841813087463,-0.0855474770069122,0.04443359375,0.0765324234962463,0.331426997836942,-0.095037710763047,-0.3723919310298112,0.8616544131345345,-0.7820600282732725,-0.1173465793818768,2.358778352349015,960,0.5999859834630477,0
1761602707730376704,1.6423766613006592,-0.4274896383285522,-0.29182168841362,0.36106738448143,-0.0831262022256851,0.7079135179519653,-0.7013903856277466,-0.0886572524905204,0.0308560132980346,0.077382206916809,0.3292378581566623,-0.0948948288107543,-0.3745661208404862,0.8615669426336492,-0.786539709772789,-0.117966041230706,2.362574938194795,970,0.6310918671977267,0
1761602707740421888,1.6524217128753662,-0.4594613015651703,-0.3045440316200256,0.3646697402000427,-0.0829908922314643,0.7113906145095825,-0.6978796124458313,-0.0968187004327774,0.0677231550216674,0.0965307354927063,0.3269552666237774,-0.0948848655145506,-0.3769045673303754,0.8614175181926361,-0.7914749086868718,-0.1183627815914184,2.3665796188309867,980,0.6609355295707035,0
1761602707750465536,1.6624655723571775,-0.3531132936477661,-0.36855149269104,0.2708577513694763,-0.0834587812423706,0.7146130204200745,-0.6945234537124634,-0.1177436038851738,0.1281909346580505,0.0966688394546508,0.3247877419524412,-0.0945502145342936,-0.3792077609561857,0.8612634114857233,-0.7960707723076714,-0.1195935284296801,2.37002488426915,990,0.5778262043144948,0
1761602707760510720,1.6725106239318848,-0.2360275685787201,-0.4625345468521118,0.1900682896375656,-0.0851383805274963,0.7168819904327393,-0.6919766664505005,-0.1293086558580398,0.1381442546844482,0.0953427553176879,0.3229386600389587,-0.0934918686392687,-0.3811442395106077,0.8612194845200468,-0.7993197188776726,-0.1224212281619953,2.3723264173531686,1000,0.5529676074478689,0
1761602707770554880,1.6825547218322754,-0.216043472290039,-0.5300717353820801,0.1716424077749252,-0.0877802297472953,0.7186608910560608,-0.6897979378700256,-0.1281316429376602,0.1234564185142517,0.0986266136169433,0.3211720877797306,-0.0918531732071284,-0.3829674095940534,0.8612476144005804,-0.8018746151512656,-0.1265746806073995,2.373996198766881,1010,0.5975884392429965,0
1761602707780599552,1.692599534988403,-0.3194620609283447,-0.4829210042953491,0.2050300985574722,-0.0904375612735748,0.7207397222518921,-0.6872811317443848,-0.1124432981014251,0.0872436761856079,0.0914559364318847,0.3193272446630063,-0.090243830773294,-0.3849876473110801,0.8612030790322749,-0.804868831106768,-0.1308357379578476,2.375682502002835,1020,0.6142524286290619,0
1761602707790644736,1.7026445865631104,-0.497947633266449,-0.3916446268558502,0.2231941819190979,-0.0923432633280754,0.7238953709602356,-0.6837018132209778,-0.1169767752289772,0.0627256631851196,0.0800641179084777,0.3174188146674377,-0.0892572180867497,-0.3875335504830655,0.8608693948077644,-0.8094319484429146,-0.1342512471175204,2.3775084092709102,1030,0.671679240458756,0
1761602707800688640,1.712688684463501,-0.6458925604820251,-0.3528842329978943,0.2006315290927887,-0.0937654450535774,0.7281675934791565,-0.6789551377296448,-0.1400297284126281,0.0567750334739685,0.0705872178077697,0.3155801152271,-0.0888298105436386,-0.3906810538235362,0.8601667699974216,-0.8156446085790167,-0.1372344879477008,2.378955540558247,1040,0.7628613845585902,0
1761602707810733824,1.722733736038208,-0.7082637548446655,-0.2881395816802978,0.1776332706212997,-0.0950996503233909,0.7331560850143433,-0.6733782291412354,-0.1434867680072784,0.0405408143997192,0.0486223697662353,0.3138888891923718,-0.088696821785266,-0.394263561568844,0.8591641185768021,-0.822951332941358,-0.1402998229100966,2.37973282585131,1050,0.7849939769126776,0
1761602707820777728,1.7327775955200195,-0.576341450214386,-0.1828525960445404,0.1134965419769287,-0.0960601270198822,0.7378789782524109,-0.668062150478363,-0.1187378466129303,0.0021112561225891,0.0375537872314453,0.3125389094666515,-0.0888371329921839,-0.3975888369938168,0.8581086987968249,-0.8299224028738339,-0.142810360248654,2.3800225728393225,1060,0.6152121619052814,0
1761602707830822656,1.7428226470947266,-0.2627600729465484,-0.1453092098236084,0.059295617043972,-0.0969739332795143,0.740925133228302,-0.6645494699478149,-0.1007647141814231,-0.054737389087677,0.0361009836196899,0.3117562961778105,-0.0888201736690019,-0.3997952470106471,0.8573696345484055,-0.8344468053044904,-0.144901590520885,2.3797628750547615,1070,0.30606141964491745,0
1761602707840866816,1.7528667449951172,0.0536815822124481,-0.2081372290849685,0.0835988223552703,-0.098107561469078,0.7417958974838257,-0.6634106636047363,-0.0806033760309219,-0.0660604834556579,-0.0116228461265563,0.3111037141423153,-0.0881744567785786,-0.4006493733937323,0.8572746523769689,-0.8357443636673609,-0.1468194813205482,2.380068925225921,1080,0.23063300175644535,0
1761602707850911744,1.7629115581512451,0.2886962294578552,-0.3468458354473114,0.1460275948047638,-0.0994042828679084,0.7407756447792053,-0.66435706615448,-0.048712782561779,-0.0237804055213928,-0.0266982316970825,0.3102276350850325,-0.0868403178447109,-0.400350119518215,0.8578679755100467,-0.8342242548855346,-0.1485229700024885,2.381693797685733,1090,0.4743117170329975,0
1761602707860955648,1.7729556560516355,0.3890438675880432,-0.4036007523536682,0.1249888762831687,-0.1013754233717918,0.738714337348938,-0.6663513779640198,-0.0271188393235206,0.0219972729682922,-0.0154723525047302,0.3090785358027716,-0.0847678982108334,-0.399548131630579,0.858863345956252,-0.8311609432878241,-0.1509773884649245,2.3839873725160308,1100,0.5743439016850785,0
1761602707871000832,1.7830007076263428,0.3507774472236633,-0.4155396819114685,0.1233132109045982,-0.1036083325743675,0.7363783717155457,-0.66858971118927,0.001603327691555,0.0339463353157043,0.0295058488845825,0.3079430194577946,-0.0825052956529708,-0.3986201408572378,0.8599220376689909,-0.8277016862841379,-0.1537426028959302,2.386203392143047,1110,0.5576057681798461,0
1761602707881045760,1.7930457592010498,0.3605252504348755,-0.4298945367336273,0.1049677655100822,-0.1059995517134666,0.7343237996101379,-0.6704719662666321,0.012096956372261,0.027303397655487,0.0690467953681945,0.3067741287769625,-0.080227600031203,-0.3979039406685847,0.860886529874584,-0.824669957516485,-0.1567991291975314,2.388257844257691,1120,0.5707941841949069,0
1761602707891089664,1.803089618682861,0.532709538936615,-0.3877225816249847,0.0716859698295593,-0.1084415987133979,0.7314915657043457,-0.6731719970703125,0.0188114643096923,0.0012660026550292,0.108856201171875,0.3058031582046514,-0.077824695041428,-0.3966828960069973,0.8620153722406612,-0.8205069438174358,-0.1597183389847234,2.3901991477776408,1130,0.6627572190828315,0
1761602707901134848,1.8131346702575684,0.6712592244148254,-0.3897421360015869,0.0592589564621448,-0.1109644845128059,0.7275871634483337,-0.6769814491271973,0.0019098967313766,-0.0066704154014587,0.1127266883850097,0.3050347298996726,-0.0752146398188094,-0.3947809945620771,0.8633913599376072,-0.8147981689324554,-0.1624659817581161,2.3921357226406266,1140,0.7784596989299156,0
1761602707911178496,1.82317852973938,0.754231333732605,-0.4159947633743286,0.0692210495471954,-0.1134550124406814,0.722846508026123,-0.6816309690475464,0.0064756721258163,0.0109028220176696,0.0769252181053161,0.3042726296807768,-0.0724316352040355,-0.3923495509147228,0.8650049441415925,-0.8079128786307331,-0.1649343447876398,2.394477368978289,1150,0.8641227352866855,0
1761602707921223680,1.833223581314087,0.7505394220352173,-0.4646717309951782,0.0712159276008606,-0.1162328794598579,0.7178189754486084,-0.6864588856697083,0.0065069273114204,0.0144808292388916,0.0283626317977905,0.3034061613810098,-0.0694065575298229,-0.3898118448428533,0.8667030385474181,-0.8006646164383999,-0.1677315332673648,2.397001110435233,1160,0.8856076727078782,0
1761602707931267840,1.8432676792144775,0.6788066029548645,-0.376638799905777,0.0611792728304863,-0.1189419031143188,0.7130020260810852,-0.6909999847412109,0.0074306651949882,0.0036422610282897,-0.003335952758789,0.3025392425376801,-0.0664885299062424,-0.3874006686693407,0.868314496098162,-0.7937704233971294,-0.1704596990655402,2.3994702631691633,1170,0.778702827292706,0
1761602707941312768,1.8533127307891848,0.5594232678413391,-0.2728837132453918,-0.0105504849925637,-0.1212595626711845,0.7088277339935303,-0.6948807835578918,-0.0112630128860473,0.0012094974517822,0.0365861654281616,0.3020308597875517,-0.0640986625274153,-0.3852933383818426,0.8696078107713673,-0.7878349398784231,-0.1727644770300797,2.4010685481831926,1180,0.6225200609542267,0
1761602707951356672,1.863356590270996,0.447389155626297,-0.2077225595712661,-0.0493985451757907,-0.1233899071812629,0.705328106880188,-0.698059618473053,-0.0376513674855232,-0.0028287172317504,0.0467992424964904,0.301919883974047,-0.062149928278,-0.3835460498724728,0.8705597567918595,-0.7828858956679223,-0.1749540856287362,2.401566164263866,1190,0.49572768189030336,0
1761602707961401600,1.8734016418457031,0.3758030533790588,-0.1090994775295257,-0.0484477132558822,-0.1250644028186798,0.7025026679039001,-0.7006061673164368,-0.0271725356578826,-0.0038790106773376,0.0319049358367919,0.3019415366396623,-0.0606537852143416,-0.3821230788615736,0.871283237006753,-0.7789079690011746,-0.1766482243710106,2.4017436106628107,1200,0.39430674841544794,0
1761602707971446784,1.8834466934204104,0.3720181584358215,-0.0316614098846912,-0.0884257480502128,-0.1262156218290329,0.6998229622840881,-0.7030770778656006,-0.0248616337776184,0.0310882329940795,0.0409830212593078,0.3022428199083858,-0.0595807718025208,-0.3806725429629834,0.8718875000824046,-0.775149655617961,-0.1776268961407787,2.4015412596055987,1210,0.38369137076575766,0
1761602707981490688,1.8934905529022217,0.35733562707901,0.0026312824338674,-0.1395662575960159,-0.1273272484540939,0.6972217559814453,-0.7054569721221924,-0.0326611250638961,0.0903759002685546,0.0593998432159423,0.3028501689758345,-0.058681434347869,-0.3792466218789476,0.8723590040760009,-0.7715145833979571,-0.1785665888695229,2.400625566148441,1220,0.38363317672817815,0
1761602707991535616,1.9035356044769287,0.395284354686737,0.0331162214279174,-0.1437229216098785,-0.1284083873033523,0.6944542527198792,-0.7079862952232361,-0.0165501236915588,0.1107062697410583,0.0434202551841735,0.3036373347302745,-0.0578377602996556,-0.3777057709166836,0.8728101152478215,-0.7676611373143567,-0.1794208694909539,2.3993900783777016,1230,0.42190364229033656,0
1761602708001579776,1.9135797023773191,0.3827329277992248,0.0767310410737991,-0.1194880679249763,-0.1291405856609344,0.6915876269340515,-0.7106541395187378,-0.0223181396722793,0.0772417187690734,0.0131443738937377,0.3044431654784177,-0.0571544457015707,-0.3760402927636733,0.8732934464517749,-0.7636847577505498,-0.1797591651003582,2.3983660354012444,1240,0.40822732032836734,0
1761602708011624704,1.9236247539520264,0.3052887320518493,0.1472265124320984,-0.139357104897499,-0.1294203400611877,0.6890429854393005,-0.7130709886550903,-0.0363359004259109,0.0452099442481994,0.0305148363113403,0.3053019492415589,-0.0567947682600291,-0.3744847948681362,0.873685514148178,-0.7601676966628376,-0.1795427118364984,2.3973471019936405,1250,0.3664659036884021,0
1761602708021668608,1.933668613433838,0.1781289726495742,0.2506537735462188,-0.2060586512088775,-0.1293791383504867,0.6871975660324097,-0.7148570418357849,-0.0549470484256744,0.0336581468582153,0.0690898299217224,0.3065167111843443,-0.0569083912011737,-0.3732732344275175,0.8737711907763165,-0.7576243456722924,-0.1790478623976028,2.3953944547349857,1260,0.3701586319784718,0
1761602708031713792,1.943713665008545,0.1324253976345062,0.3009622097015381,-0.2627232670783996,-0.1292075961828231,0.6859365105628967,-0.7160981893539429,-0.0630531311035156,0.0423807501792907,0.0625032186508178,0.3081402235204812,-0.0573945240149957,-0.3723664710504369,0.873555249781763,-0.7558899111379812,-0.1785121289209826,2.3923266424710627,1270,0.4208779546037518,0
1761602708041757696,1.9537577629089355,0.1617520898580551,0.3297930955886841,-0.3034442067146301,-0.1290709674358368,0.6846306324005127,-0.7173712849617004,-0.0387146770954132,0.0419013500213623,0.0148719549179077,0.3100305274362547,-0.0579636377847218,-0.3714223538325124,0.8732506707694766,-0.7540968264306325,-0.1780175008023975,2.388643020890077,1280,0.476451058410081,0
1761602708051802624,1.9638025760650637,0.2070958763360977,0.353185772895813,-0.3521427810192108,-0.1290438026189804,0.6829783320426941,-0.7189493775367737,-0.0025174468755722,0.0541890263557434,0.0026255846023559,0.3121768686707421,-0.058502505193674,-0.3702738926492169,0.8729376701773806,-0.7518323377415307,-0.1775983328341409,2.384453390464811,1290,0.5400309531826606,0
1761602708061847808,1.9738476276397705,0.2444464117288589,0.3500781655311584,-0.3819378912448883,-0.1292030364274978,0.6809552907943726,-0.7208373546600342,0.0114051699638366,0.0768419504165649,0.0063903331756591,0.3145314696978734,-0.058945137481599,-0.3689265337498699,0.87263323758157,-0.7490663375491284,-0.1773568906486174,2.3798319701097923,1300,0.572874613643656,0
1761602708071891712,1.9838917255401611,0.2294259071350097,0.3386707901954651,-0.3841304779052734,-0.1295196115970611,0.6788477897644043,-0.7227657437324524,0.015551745891571,0.0712437629699707,0.0146511197090148,0.3169263476612685,-0.0593013452436062,-0.3675601672301329,0.8723190307088677,-0.7461923020031721,-0.1773179323784661,2.3750569584485124,1310,0.5611509378519085,0
1761602708081936640,1.993936538696289,0.1718803197145462,0.398266464471817,-0.4179977178573608,-0.129757210612297,0.676964521408081,-0.7244874835014343,0.011562630534172,0.0394356250762939,0.0457155108451843,0.3194201936503886,-0.0597861497244392,-0.3663084474976798,0.871902762958852,-0.743630540586235,-0.1772230598095358,2.370001730829983,1320,0.6023961430504162,0
1761602708091980800,2.0039806365966797,0.1353044658899307,0.4873417317867279,-0.4595970511436462,-0.1296774297952652,0.6754171848297119,-0.7259445190429688,-0.0107034295797348,0.011533498764038,0.0647964477539062,0.3222232701803783,-0.0606326581408355,-0.3651731379358888,0.8712889832234153,-0.7415302603819524,-0.1767682355200339,2.364273351604996,1330,0.6834023057106128,0
1761602708102025728,2.0140256881713867,0.1063566505908966,0.5138162970542908,-0.4535582661628723,-0.1292879730463028,0.6740391254425049,-0.7272935509681702,-0.0135343074798583,0.0187251567840576,0.0532671213150024,0.3251998324368457,-0.0617400473194073,-0.364062336827031,0.8705699008736101,-0.7396631646320851,-0.1759280760115665,2.358246473555037,1340,0.6935661648668915,0
1761602708112069632,2.0240695476531982,0.1365688741207122,0.5047903060913086,-0.4614713191986084,-0.1288184523582458,0.672702431678772,-0.7286132574081421,0.0096320360898971,0.0499995946884155,0.0485748052597045,0.3281680632014374,-0.0628878014024688,-0.3629579761241964,0.8698347015319946,-0.7378551014370462,-0.1749911424634344,2.352258956751639,1350,0.6974382330681763,0
1761602708122114560,2.0341145992279053,0.1911758184432983,0.4948560297489166,-0.4856174886226654,-0.1284937709569931,0.6709777116775513,-0.7302590012550354,0.0290980339050292,0.0591858029365539,0.0486489534378051,0.3312149041740435,-0.0638962933466921,-0.3616458969960762,0.8691525167408541,-0.7355265753558821,-0.174173530715825,2.34616272753949,1360,0.7192044417219002,0
1761602708132159744,2.0441596508026123,0.1831700950860977,0.4726777672767639,-0.4805681407451629,-0.1283523738384246,0.6690848469734192,-0.7320185303688049,0.0534164607524871,0.0563485026359558,0.0583430528640747,0.3342777503140918,-0.0647729532596706,-0.360271004991422,0.8684858265688976,-0.7329766992166918,-0.1735758736219758,2.3399876668870623,1370,0.6985136314424074,0
1761602708142203904,2.054203748703003,0.2021422982215881,0.4763482809066772,-0.4702025055885315,-0.1281779706478119,0.6671809554100037,-0.7337846755981445,0.072819098830223,0.0606785416603088,0.0793962478637695,0.3372769927057918,-0.0656295718678836,-0.3588877576529904,0.8678343441327836,-0.7304178297596838,-0.1729357767252752,2.333973637621115,1380,0.6991849467163785,0
1761602708152248576,2.064248561859131,0.2243842184543609,0.4645683169364929,-0.4517116546630859,-0.1279141455888748,0.6650912165641785,-0.7357252240180969,0.071517676115036,0.0476468205451965,0.0937422513961792,0.3402258330652489,-0.0664556071957833,-0.3573807916073241,0.8672421574575341,-0.7276159468168736,-0.1721405888714133,2.3281950239415288,1390,0.6857225514382935,0
1761602708162292736,2.0742926597595215,0.1973543018102646,0.4265121817588806,-0.4238678514957428,-0.1276631653308868,0.6630691289901733,-0.7375916838645935,0.066475436091423,0.0492721199989318,0.089962899684906,0.343007204118878,-0.0672159041652926,-0.3559300332133985,0.8666844822022007,-0.7249114384469724,-0.1713831710004444,2.322758191496289,1400,0.6328706954531506,0
1761602708172337664,2.0843377113342285,0.1610607355833053,0.4132919907569885,-0.4005239009857178,-0.1273861229419708,0.661324679851532,-0.7392038702964783,0.0661220997571945,0.057974636554718,0.0908732414245605,0.34560222870647,-0.0679758303768753,-0.3546510080721555,0.8661183689625607,-0.722583423858991,-0.1706526790233947,2.3176423762320533,1410,0.5976372021814967,0
1761602708182381568,2.09438157081604,0.1409322619438171,0.411008358001709,-0.3847394585609436,-0.1270267367362976,0.659824788570404,-0.7406046986579895,0.0597355067729949,0.0569873452186584,0.1049846410751342,0.3480948082868895,-0.0687903938508444,-0.3535046257686649,0.8655242499617748,-0.7205855916838535,-0.1698647559627066,2.31270069449347,1420,0.5803569796061987,0
1761602708192426752,2.104426622390747,0.1241335719823837,0.3754817843437195,-0.3468509316444397,-0.1265959590673446,0.6584846377372742,-0.7418702244758606,0.0532622188329696,0.0633018016815185,0.1074556112289428,0.3504332658030789,-0.0696126742676022,-0.3524471011173064,0.8649460650769473,-0.7188034939522376,-0.1690163368475058,2.30808277755355,1430,0.5260240325780419,0
1761602708202470656,2.1144707202911377,0.1354225873947143,0.3200282752513885,-0.3182985484600067,-0.1262635737657547,0.6572307348251343,-0.7430378794670105,0.0505189299583435,0.0814014673233032,0.1087605953216552,0.3525216222921571,-0.0703033521714438,-0.3514804209926447,0.8644348049881659,-0.7171385512700194,-0.1683209926877005,2.303947836112376,1440,0.47124445894758776,0
1761602708212515584,2.1245155334472656,0.1603543013334274,0.2701025009155273,-0.3178876042366028,-0.1262287348508834,0.655828058719635,-0.744282066822052,0.0475238859653472,0.0824531912803649,0.1196025609970092,0.3544734478374796,-0.070752591285507,-0.3505039565391937,0.8639963107647245,-0.715279024476653,-0.1679993985855761,2.3000221831302587,1450,0.4469019936006563,0
1761602708222560768,2.1345605850219727,0.1437779515981674,0.2392620593309402,-0.3070046007633209,-0.1264764368534088,0.6543996334075928,-0.745496392250061,0.0496179014444351,0.0680735111236572,0.140363335609436,0.3563250425365239,-0.0710145805005715,-0.349583667870575,0.8635859730986174,-0.7133883911076403,-0.168053852672254,2.296182261722796,1460,0.4149340396869042,0
1761602708232604672,2.1446046829223633,0.1458975672721862,0.2164510190486908,-0.3200114965438843,-0.126877099275589,0.6530649662017822,-0.7465978860855103,0.0462801754474639,0.0678670406341552,0.15416020154953,0.3581213633990062,-0.0712018757604043,-0.3487568571499222,0.8631616833403024,-0.7116245900342234,-0.1683321727966804,2.2923469757996036,1470,0.4129703399802645,0
1761602708242649856,2.1546497344970703,0.1771031618118286,0.1920442134141922,-0.3448907136917114,-0.127566859126091,0.651546061038971,-0.7478064298629761,0.0389743149280548,0.066502034664154,0.1448553800582885,0.3599735020685395,-0.0712219183196193,-0.3478853547267871,0.8627411620990058,-0.7096206468393274,-0.1689616550036644,2.2882996426259443,1480,0.43266166252673766,0
1761602708252693760,2.164693593978882,0.1949484646320343,0.1887189894914627,-0.3790910542011261,-0.1285454183816909,0.6497909426689148,-0.7491647601127625,0.0470787435770034,0.0772293210029602,0.1346476078033447,0.3619305079400599,-0.0710809997461034,-0.3469367336443511,0.862315955472234,-0.7073093486995974,-0.1699302013292494,2.283949552177577,1490,0.46618643076819327,0
1761602708262738688,2.174738645553589,0.1880805492401123,0.1780886203050613,-0.4168533384799957,-0.1297805607318878,0.6479447484016418,-0.7505494952201843,0.057545468211174,0.1041151881217956,0.1093446612358093,0.364034135450911,-0.0708491954524353,-0.3459850339387321,0.8618316710479965,-0.7048830716738751,-0.1712210007853814,2.279158800022065,1500,0.4907713882109882,0
1761602708272782848,2.1847827434539795,0.1849800944328308,0.1670423746109008,-0.4465427994728088,-0.1313419938087463,0.6461077332496643,-0.7518603801727295,0.0628300756216049,0.1190441846847534,0.0622852444648742,0.3662596389335258,-0.0705092913937784,-0.3451061485235196,0.8612688083273508,-0.7024737437646796,-0.1729442318442448,2.2739086193128486,1510,0.5113914958356666,0
1761602708282827520,2.1948275566101074,0.154181033372879,0.2205083817243576,-0.485809326171875,-0.1329506933689117,0.644306480884552,-0.7531223297119141,0.0529946386814117,0.103496253490448,0.041055679321289,0.3686482607323009,-0.0702192929058143,-0.344250039809131,0.8606157560115756,-0.7001160684351072,-0.1747324088199078,2.268241388570352,1520,0.5553435322916753,0
1761602708292872704,2.2048726081848145,0.0992072597146034,0.266002893447876,-0.5435793995857239,-0.134487584233284,0.6428001523017883,-0.7541359663009644,0.0229000449180603,0.0896827578544616,0.0448921918869018,0.3713144186587235,-0.0701504415544236,-0.3435271854786512,0.8597637129497223,-0.6981480813370913,-0.1764781136860583,2.2618467485876903,1530,0.6132521368545721,0
1761602708302917376,2.2149174213409424,-0.007049941457808,0.3356512188911438,-0.5576909780502319,-0.1357730478048324,0.6418132781982422,-0.7547459006309509,-0.009353294968605,0.0698718428611755,0.0233311653137207,0.3742116200159114,-0.070430598651379,-0.3430256094105743,0.8586842644797084,-0.6968604853741358,-0.1779886986407972,2.254830164515454,1540,0.6509459804133468,0
1761602708312962560,2.2249624729156494,-0.0293957255780696,0.3514464497566223,-0.5810977816581726,-0.1368571370840072,0.6413671374320984,-0.7549293637275696,-0.0209034830331802,0.0289972424507141,-0.0106040835380554,0.3772424529554614,-0.0710046491353927,-0.3427734804229878,0.8574105837329077,-0.6962788693147408,-0.1793370395583839,2.247377482310118,1550,0.679745060722654,0
1761602708323006720,2.23500657081604,-0.0525798089802265,0.3668530285358429,-0.5664249062538147,-0.1378735303878784,0.6409736275672913,-0.7550786137580872,-0.0286914110183715,-0.0182624459266662,-0.0252100825309753,0.3803144989418525,-0.0716427225816946,-0.3425317752393582,0.8560958656015536,-0.695766032294329,-0.1806052871149754,2.2398324319029457,1560,0.676892129724493,0
1761602708333051648,2.245051622390747,-0.0661384984850883,0.3655502200126648,-0.5683642029762268,-0.1387395709753036,0.6408218741416931,-0.7550487518310547,-0.0421686470508575,0.0054488778114318,0.0107097625732421,0.3833448181534102,-0.0724026828269645,-0.3423937255829271,0.8547345815580351,-0.6955684056120925,-0.1817220352435971,2.2323525172998773,1570,0.6789986241208233,0
1761602708343095552,2.2550954818725586,0.0040315054357051,0.3089607357978821,-0.5919491648674011,-0.1399032771587371,0.6404315233230591,-0.7551652193069458,-0.0551193207502365,0.0373638868331909,0.0360795259475708,0.3863920547583335,-0.0729645512575623,-0.3421893629568513,0.8533954494682022,-0.695060018979994,-0.1831848915746943,2.224765070730695,1580,0.667740071500925,0
1761602708353140480,2.2651405334472656,0.1710676401853561,0.250202864408493,-0.6389819383621216,-0.1417433321475982,0.6390364170074463,-0.7560034990310669,-0.0540422052145004,0.0140092372894287,0.0383368730545043,0.3895421376717586,-0.0729707009673016,-0.3415750831926841,0.8522080991237914,-0.6932448837986716,-0.1853385952822924,2.21699928732126,1590,0.7072224037951678,0
1761602708363185664,2.2751855850219727,0.2369148582220077,0.1771824061870575,-0.6307764053344727,-0.1442689448595047,0.6366036534309387,-0.757576584815979,-0.0628843754529953,-0.0221779942512512,0.0056692361831665,0.3926950551027445,-0.0723645251542587,-0.3405511499919776,0.8512220526535534,-0.6900862246135703,-0.1881815656100618,2.2093086781465043,1600,0.6967073479124993,0
1761602708373229568,2.285229444503784,0.2224027514457702,0.1776806861162185,-0.6524390578269958,-0.1470284312963485,0.6340774297714233,-0.7591630816459656,-0.0652366131544113,-0.0281814336776733,5.352497100830078e-05,0.3957846122651861,-0.07159437239519,-0.3395478114853354,0.8502565578751035,-0.6868148311854888,-0.1913033530994997,2.2016865615900274,1610,0.7118357494868864,0
1761602708383274496,2.295274496078491,0.1652867645025253,0.1868978589773178,-0.7181965112686157,-0.1500314176082611,0.631615161895752,-0.7606266140937805,-0.077355071902275,-0.0247273445129394,0.025473415851593,0.3991035798877301,-0.0708174080935833,-0.338631939599075,0.8491346313666114,-0.6836347886427188,-0.1947471682612311,2.1933713966267483,1620,0.760300436017519,0
1761602708393318656,2.305318593978882,0.0719754695892334,0.1742310672998428,-0.7500505447387695,-0.1533945649862289,0.6297715306282043,-0.7614840865135193,-0.0838338434696197,-0.0246079564094543,-0.0178280472755432,0.4025765823249749,-0.0701065231133397,-0.3381464584712718,0.8477465913949747,-0.6812590187968625,-0.19878130901489,2.18423390721558,1630,0.773377496891368,0
1761602708403363584,2.3153634071350098,0.1028620451688766,0.1860637366771698,-0.7331357598304749,-0.1567900776863098,0.6280680894851685,-0.7621990442276001,-0.059900015592575,-0.0632029771804809,-0.0437549352645874,0.4060650289210574,-0.0694281460846245,-0.337757608752362,0.8462924230172042,-0.679068053003954,-0.2028774877793454,2.1749765091360875,1640,0.7633402627824651,0
1761602708413407488,2.3254075050354004,0.0395166277885437,0.1588930934667587,-0.7125873565673828,-0.1600973755121231,0.6264389753341675,-0.7628519535064697,-0.0571877658367157,-0.0747727155685424,-0.0261647701263427,0.4094316942925992,-0.0687657119238197,-0.3374096973413125,0.8448619415258406,-0.6769762247361107,-0.2068647242311894,2.1660144198239295,1650,0.731156152790158,0
1761602708423452672,2.3354525566101074,0.0033269664272665,0.1030095517635345,-0.7199050784111023,-0.1636059582233429,0.6252491474151611,-0.7630836367607117,-0.0585314929485321,-0.0164844989776611,0.0095283389091491,0.412686398674411,-0.0680940195527609,-0.3373742619347408,0.8433456094358264,-0.6754507494714987,-0.2112036320228089,2.1570061286808606,1660,0.7272450469973843,0
1761602708433497600,2.3454976081848145,0.0264253597706556,0.1004875376820564,-0.7355767488479614,-0.1675062924623489,0.6240358948707581,-0.763230562210083,-0.0496415346860885,0.0152921080589294,0.019944429397583,0.4159211096982988,-0.0672306403876754,-0.3374385322618494,0.8417986813786275,-0.6738971166027273,-0.2160448148444958,2.1478407123987204,1670,0.7428789930494388,0
1761602708443541504,2.355541467666626,0.0186293888837099,-0.0253307446837425,-0.8268821835517883,-0.1719935685396194,0.6225797533988953,-0.7634216547012329,-0.0411259084939956,-0.016042947769165,-0.0003264546394348,0.4192767699011686,-0.0660795406716546,-0.3375243093890794,0.8401891839655529,-0.6720350047053839,-0.2215933257288749,2.1381821141856814,1680,0.8274798162080975,0
1761602708453586688,2.365586519241333,-0.1235386729240417,-0.0819295719265937,-0.8630449771881104,-0.1779180467128753,0.6215238571166992,-0.7629241943359375,-0.0684808939695358,-0.0597562789916992,-0.0706634521484375,0.4227669900248222,-0.0644456622232482,-0.3382080172787603,0.8382900793121734,-0.6706863905989192,-0.2291106171261746,2.1272418955881376,1690,0.8756830997076135,0
1761602708463630592,2.3756306171417236,-0.3177416622638702,0.0333719514310359,-0.7673531770706177,-0.1833634227514267,0.6217814683914185,-0.7614234685897827,-0.0883956104516983,-0.1258250474929809,-0.0818535089492797,0.4260919765336484,-0.0633667046828429,-0.3395186756328088,0.8361562953878766,-0.6710152540128146,-0.2363169884548924,2.116281826324032,1700,0.8312065624385394,0
1761602708473675520,2.3856754302978516,-0.5488201379776001,0.2951942384243011,-0.669219434261322,-0.1867253482341766,0.6238726377487183,-0.7588916420936584,-0.1012232303619384,-0.190767228603363,-0.0598034262657165,0.4292050874898085,-0.0637202691511498,-0.3413120578130054,0.833803720414503,-0.6736882085346767,-0.2412576579606306,2.1059806829683585,1710,0.914438534534552,0
1761602708483719680,2.395719528198242,-0.5262306332588196,0.3039288222789764,-0.7045131921768188,-0.1886979639530182,0.6269280314445496,-0.755879819393158,-0.1606520116329193,-0.053060233592987,-0.0468392968177795,0.4324071179641313,-0.0650582032106091,-0.343260124820813,0.8312424602998586,-0.6776038523675861,-0.2446399591807274,2.095662184962003,1720,0.9303925227252394,0
1761602708493764608,2.405764579772949,-0.1927890479564666,-0.0767434015870094,-0.7759026885032654,-0.1925557553768158,0.6283190846443176,-0.753748893737793,-0.1894785612821579,0.1027752757072448,-0.082005500793457,0.4356199723801525,-0.0650576934019585,-0.3448086988835518,0.8289208418417506,-0.6793906522336949,-0.2501146565385614,2.085078898885574,1730,0.8031700621448119,0
1761602708503809792,2.415809631347656,-0.0374511256814003,-0.187342882156372,-0.6617885231971741,-0.1984662413597107,0.627665638923645,-0.7527596354484558,-0.0852556973695755,0.0377091169357299,-0.0826895833015441,0.4383505593435718,-0.0633116174387368,-0.3458494380970759,0.8271811370935388,-0.678550958040037,-0.2577853413451276,2.075558655921222,1740,0.6888134665821778,0
1761602708513853440,2.425853490829468,-0.1400310397148132,-0.0151407569646835,-0.5382908582687378,-0.2031473666429519,0.6271581053733826,-0.7519333958625793,0.0108866542577743,-0.0921850204467773,-0.0066267848014831,0.4405870595826949,-0.0619718048496385,-0.3466883472987824,0.8257418702427736,-0.6778992079900997,-0.2638672181487331,2.0678137987091025,1750,0.5564126011340591,0
1761602708523898624,2.435898542404175,-0.1784607172012329,0.1239609345793724,-0.6068626642227173,-0.2062351703643798,0.6273308992385864,-0.7509481310844421,-0.0302608162164688,-0.0923119187355041,0.0204488635063171,0.4429958506865231,-0.0616440542418867,-0.3474563921550261,0.8241534224875129,-0.6781210183600814,-0.26802501297148,2.0601507875590417,1760,0.6445904390489083,0
1761602708533942784,2.4459426403045654,-0.1326490193605423,-0.004468138795346,-0.6757853031158447,-0.2099602371454239,0.6271865367889404,-0.75003582239151,-0.1093451827764511,-0.0150802135467529,-0.0477852225303649,0.4457759941669866,-0.0610950448506494,-0.3482089552073051,0.8223756390389971,-0.6779356881654472,-0.2729471305656726,2.051379839531123,1770,0.6886955078327301,0
1761602708543987456,2.455987453460694,-0.196973443031311,0.0451511107385158,-0.5076689720153809,-0.2138911336660385,0.6271274089813232,-0.7489738464355469,-0.1010503023862838,-0.0123965740203857,-0.1245765686035156,0.4482029084787423,-0.060339959002719,-0.3491019364911641,0.8207320502356571,-0.6778597516288388,-0.2781744872685503,2.043279412497003,1780,0.5464109673200973,0
1761602708554031616,2.466031551361084,-0.2716980278491974,0.3075670003890991,-0.3807302415370941,-0.2153991609811782,0.6280725598335266,-0.7477487325668335,-0.0728088468313217,-0.0622308254241943,-0.158394455909729,0.4502240514457528,-0.0608252755928879,-0.3498941672913589,0.819251335845445,-0.6790737554921445,-0.2804702862305407,2.03695046163404,1790,0.5597971015344625,0
1761602708564076544,2.476076602935791,-0.1162125468254089,0.3596885204315185,-0.4089130163192749,-0.2153426110744476,0.6288123726844788,-0.7471429109573364,-0.1252793222665786,-0.0333686470985412,-0.1951178312301635,0.4523938813840495,-0.0620147545259962,-0.3501181505071458,0.81786990486137,-0.6800249032319055,-0.2806160710642353,2.0312543348541756,1800,0.5568581890258869,0
1761602708574121472,2.486121416091919,0.1408160477876663,0.1864083707332611,-0.3756024837493896,-0.2159135937690735,0.6278656125068665,-0.7477741241455078,-0.1438276022672653,0.0365020632743835,-0.2285747528076172,0.4545608024531433,-0.0623831959297015,-0.3496016106912401,0.8168608330081598,-0.6788079052071916,-0.2810963865916112,2.0261731421968645,1810,0.442328459171098,0
1761602708584165632,2.4961655139923096,0.2392913848161697,-0.023610008880496,-0.241588681936264,-0.2175312340259552,0.6256740093231201,-0.7491410374641418,-0.1002635657787323,0.0552036762237548,-0.2166030406951904,0.4560345151269024,-0.0615867345929245,-0.3487643385770324,0.8164576571440295,-0.6759952206846266,-0.2826025652745672,2.0229073374023883,1820,0.3408561142275119,0
1761602708594210560,2.5062105655670166,0.1686244010925293,-0.0241522286087274,-0.1949679106473922,-0.2193437069654464,0.6236737966537476,-0.7502796053886414,-0.0359053462743759,-0.02023446559906,-0.1182812452316284,0.4569080400421383,-0.060508811940205,-0.3481363168844373,0.8163179408537617,-0.6734337493900471,-0.2844231058035517,2.020890896138304,1830,0.2589015352847332,0
1761602708604254464,2.516254425048828,0.0297338403761386,0.0822831988334655,-0.2394855767488479,-0.2207665145397186,0.62245112657547,-0.750877320766449,-0.0434851497411727,-0.1488488912582397,0.0046767592430114,0.4579150224886368,-0.0599118340709261,-0.3478101855901653,0.8159364878807192,-0.6718705792001621,-0.2859536884718037,2.018320444463064,1840,0.2549666008411879,0
1761602708614299648,2.526299476623535,-0.0886354148387909,0.1837677508592605,-0.2335970550775528,-0.2214857339859008,0.6221801042556763,-0.7508901357650757,-0.0994218587875366,-0.2485228776931762,0.0632070302963256,0.459151307475025,-0.0600320792557573,-0.3477802174961681,0.8152454302581524,-0.6715243471921534,-0.2868304364580789,2.0150373681335316,1850,0.31015223223510907,0
1761602708624343552,2.536343574523926,-0.1551249027252197,0.2206316888332367,-0.2035365402698516,-0.2215002477169037,0.6226574778556824,-0.750490128993988,-0.1222802847623825,-0.2745739817619324,0.0950183272361755,0.4603874089554729,-0.0607076916863326,-0.3479504555032511,0.8144253548791603,-0.6721342721224755,-0.2869928701630643,2.0117185264382647,1860,0.3378893321605996,0
1761602708634388736,2.546388626098633,-0.0963172316551208,0.2618393003940582,-0.2083581835031509,-0.2210720926523208,0.6231778264045715,-0.7501843571662903,-0.1141330152750015,-0.2381680607795715,0.0785077214241027,0.4616105234933352,-0.06158928532758,-0.348015195293817,0.813638774615068,-0.6727994732074113,-0.2865784628880325,2.0086544622327596,1870,0.34820965089625067,0
1761602708644433408,2.5564334392547607,-0.0406502448022365,0.1621500104665756,-0.1994864046573639,-0.2209618687629699,0.6232889890670776,-0.7501245141029358,-0.0882117301225662,-0.1819895505905151,-0.0034460425376892,0.4628268120926623,-0.062194718325194,-0.3479505203884879,0.812929084131294,-0.6729415684411362,-0.2864648996628604,2.0056613680476634,1880,0.26026888776785034,0
1761602708654477568,2.5664775371551514,0.1485135406255722,0.0164431352168321,-0.1500818282365799,-0.2214501798152923,0.6224504113197327,-0.7506766319274902,-0.0331122279167175,-0.1528611779212951,-0.1008553504943847,0.4637507838791088,-0.0621003242577564,-0.3475704928357906,0.8125722430842078,-0.6718697076114447,-0.2868640592432547,2.003598652538225,1890,0.2117810275065658,0
1761602708664522752,2.5765225887298584,0.3113270401954651,-0.1170846298336982,-0.1113472282886505,-0.2227765172719955,0.6203821897506714,-0.7519950866699219,0.0024243146181106,-0.1517390012741089,-0.1587104797363281,0.4642745797676061,-0.0610629072181248,-0.3468050857577223,0.8126787865432237,-0.6692299023016112,-0.2880103946148553,2.0027599675096344,1900,0.3507585234142254,0
1761602708674566400,2.58656644821167,0.3815971910953522,-0.2352200597524643,-0.120647519826889,-0.2249795496463775,0.6173996925354004,-0.7537916302680969,-0.0139578282833099,-0.1103653907775878,-0.1314011812210083,0.4645501142332146,-0.0592362818764586,-0.3458254438249996,0.8130738748334349,-0.6654328734366401,-0.2900468803834112,2.002565900592614,1910,0.4642205475872381,0
1761602708684611584,2.596611499786377,0.3258649706840515,-0.2500029802322387,-0.1321513056755066,-0.2278068363666534,0.6143363118171692,-0.7554435729980469,-0.0437996238470077,-0.0946066975593566,-0.0958595275878906,0.4647736554730843,-0.0570892419295219,-0.3449913466886078,0.813453970085856,-0.6615445625273104,-0.2928816352186118,2.002195900871546,1920,0.4314550229579673,0
1761602708694655744,2.6066555976867676,0.1814127117395401,-0.1463684886693954,-0.1367953419685363,-0.2303080260753631,0.6120445728302002,-0.7565445303916931,-0.0673451721668243,-0.1397850513458252,-0.0937057137489318,0.4650640361317813,-0.055367375707598,-0.3444737753701429,0.8136263059991342,-0.6586434208733556,-0.295507776596101,2.0014022094116912,1930,0.2702725883998323,0
1761602708704700416,2.6167004108428955,0.1098846048116684,-0.0334977246820926,-0.1866807788610458,-0.2320941090583801,0.6106012463569641,-0.757164716720581,-0.0932842791080474,-0.1904352903366089,-0.1075660586357116,0.4656143458795365,-0.0543464617969343,-0.3441861488897826,0.8135020307291434,-0.6568195779844029,-0.2974372880951387,1.9998828879026207,1940,0.2191949751469237,0
1761602708714745600,2.6267454624176025,0.1461371481418609,0.0254678558558225,-0.2616138458251953,-0.2335729300975799,0.6090362071990967,-0.7579699754714966,-0.1065149456262588,-0.1995666623115539,-0.0893810391426086,0.4666053476560899,-0.0536086215417815,-0.3437166188338895,0.8131816375105934,-0.6548448881488342,-0.29892237786276,1.9975234124183008,1950,0.3007432161768212,0
1761602708724789504,2.636789560317993,0.183441013097763,0.0275625325739383,-0.2673905193805694,-0.2351542115211486,0.6070880889892578,-0.7590432167053223,-0.085539773106575,-0.1703662872314453,-0.0592703819274902,0.4678188035044098,-0.052796016959271,-0.3430611768591901,0.8128144079491255,-0.6523909538018974,-0.3004263473992306,1.994781236957381,1960,0.32543507546488243,0
1761602708734834688,2.6468346118927,0.2197263091802597,-0.0237864106893539,-0.2369202375411987,-0.2367402613162994,0.6048694849014282,-0.7603203058242798,-0.038665622472763,-0.1383930444717407,-0.0382636785507202,0.4689269747612321,-0.0518496150978233,-0.3422739688017195,0.8125685731851954,-0.6496019884160292,-0.3018542650066282,1.9924506292979665,1970,0.32400099264668886,0
1761602708744878592,2.6568784713745117,0.2362174689769745,-0.0371712557971477,-0.2558974921703338,-0.238629549741745,0.6024667024612427,-0.7616363167762756,-0.0137813538312911,-0.1388589143753051,-0.0438446402549743,0.4699439271896394,-0.0506723536697623,-0.3414881465797536,0.8123859642918674,-0.6465880424702793,-0.3036241515301412,1.990282718326085,1980,0.3502340951513586,0
1761602708754923520,2.6669235229492188,0.2420175671577453,-0.0201227646321058,-0.2911273837089538,-0.2406510561704635,0.5998571515083313,-0.763058602809906,-0.0109205991029739,-0.1551550030708313,-0.0437040328979492,0.4711015701113379,-0.0494300966044757,-0.3406278800103939,0.8121530603743943,-0.6433225490496963,-0.3055036485847432,1.9878141039688,1990,0.37912080134782017,0
1761602708764967680,2.67696762084961,0.1603639870882034,0.0129180084913969,-0.2637883424758911,-0.2424651682376861,0.5975381731987,-0.7643027305603027,-0.0338257104158401,-0.1522867679595947,-0.0372413992881774,0.4723011784888487,-0.0483903865826522,-0.3398632070152033,0.8118391720226471,-0.6404273998199149,-0.3071946532309223,1.9851900016741484,2000,0.30897859622373086,0
1761602708775012608,2.6870124340057373,0.1418206691741943,0.0440045520663261,-0.2770860493183136,-0.2439098805189132,0.5957345366477966,-0.7652505040168762,-0.0488910228013992,-0.0963296294212341,-0.0178458094596862,0.4735026924166354,-0.0476792533009508,-0.3392660147299801,0.811431124692369,-0.6381798488649966,-0.3085523676526177,1.9824693879210236,2010,0.31436631742984994,0
1761602708785057536,2.6970574855804443,0.1981822699308395,0.0270654521882534,-0.2799956202507019,-0.2454146593809127,0.593637228012085,-0.7663983702659607,-0.0589066296815872,-0.0780732631683349,-0.0333910584449768,0.4747765886182588,-0.0468772437563868,-0.3385311493040303,0.8110402925907623,-0.6355711577477571,-0.3099008104472222,1.9797040794114849,2020,0.3441021624120808,0
1761602708795101696,2.707101583480835,0.1628447920083999,0.0090379826724529,-0.2248879075050354,-0.2469050139188766,0.5915036797523499,-0.7675684094429016,-0.0303929597139358,-0.0836606621742248,-0.0509740710258483,0.4758976710399808,-0.0460058686341951,-0.3377858078261835,0.8107437893115275,-0.6329224554368722,-0.3112185990822667,1.9773431171067168,2030,0.27780331595760327,0
1761602708805146624,2.717146635055542,0.0849726274609565,0.00789575278759,-0.1812254637479782,-0.2481303215026855,0.5899761319160461,-0.7683485746383667,0.0116953998804092,-0.0517986416816711,-0.0251542329788208,0.4767771855032079,-0.0453448818867634,-0.3372974413056699,0.8104676686495768,-0.6310293045779167,-0.3123673907291237,1.9753773888229516,2040,0.2003131524398011,0
1761602708815190528,2.7271904945373535,0.0799629539251327,-0.009852884337306,-0.1787391453981399,-0.2493270337581634,0.5888486504554749,-0.7688259482383728,0.0175765305757522,-0.0160947442054748,0.0005001425743103,0.477539798962781,-0.0447768079800598,-0.3370193671428648,0.810165933775169,-0.6296335742669122,-0.3135948432461201,1.9734881378568063,2050,0.19605824498820398,0
1761602708825235712,2.7372355461120605,0.1253860294818878,-0.013901887461543,-0.1591424345970153,-0.2505271434783935,0.5875496864318848,-0.7694293260574341,-0.012168139219284,-0.0128427147865295,-0.0100811123847961,0.4782501473166761,-0.0441303549135399,-0.3366568624005042,0.8099329739049898,-0.6280273842907969,-0.31477558337983,1.9718231849388796,2060,0.20307937697780032,0
1761602708835279360,2.747279405593872,0.1285155117511749,0.0055056326091289,-0.1171473264694213,-0.2514673173427582,0.5861092209815979,-0.7702208757400513,-0.0426763594150543,-0.0010109543800354,-0.0092285871505737,0.4788540206867969,-0.0435071819434801,-0.3361497875985034,0.8098205919854626,-0.6262483936860684,-0.3155765129672286,1.970642544773207,2070,0.17398288665850517,0
1761602708845324544,2.757324457168579,0.1010263636708259,-0.0069491728208959,-0.0899542272090911,-0.2521553933620453,0.5848563313484192,-0.7709479331970215,-0.0505942404270172,0.0397164225578308,-0.0098748207092285,0.4793309036952821,-0.0430016373500301,-0.3356737916389664,0.8097628059250779,-0.6247029248915974,-0.3161047032835529,1.9698038087582816,2080,0.13544881008052242,0
1761602708855369472,2.767369508743286,0.0375493839383125,-0.0462156198918819,-0.0520294830203056,-0.2528861463069916,0.5840387344360352,-0.771328330039978,-0.0412728190422058,0.0642919540405273,-0.0238682031631469,0.479607688498141,-0.0425349709516197,-0.3354498651543346,0.8097164414461022,-0.6236953353807622,-0.3168146576494832,1.9691903886332809,2090,0.07907532396075263,0
1761602708865413632,2.7774136066436768,-0.0306903552263975,-0.0269804373383522,-0.0390068963170051,-0.254374623298645,0.5827166438102722,-0.7718386650085449,-0.0213974714279174,0.0609906315803527,-0.0194668769836425,0.4800009239793795,-0.0416247803730664,-0.33518360609424,0.809640989865966,-0.6220675345951477,-0.3183594571688652,1.9681679969289736,2100,0.05649229914932477,0
1761602708875458560,2.7874584197998047,-0.0728615075349807,-0.0151706505566835,-0.0354228131473064,-0.2551519572734833,0.5816361904144287,-0.7723968625068665,-0.0232294201850891,0.0528090000152587,-0.011309802532196,0.4803738380973505,-0.0410933741458443,-0.3348326606400129,0.8095922090813479,-0.6207386711700157,-0.3190522424258988,1.9674410849550903,2110,0.08242404752165496,0
1761602708885502464,2.7975025177001953,-0.1109690517187118,-0.0354925990104675,-0.0092614255845546,-0.2551715075969696,0.5816213488578796,-0.7724014520645142,-0.0281078815460205,0.050840139389038,-0.0368178486824035,0.4804867371587975,-0.04112683769301,-0.3348250987737756,0.8095264636149944,-0.6207204351956243,-0.3190732933240378,1.9671594581438256,2120,0.11687441562517528,0
1761602708895547648,2.8075475692749023,-0.0909932106733322,-0.0358201675117015,0.0151544352993369,-0.255058079957962,0.58241868019104,-0.7718379497528076,-0.0096666514873504,0.0563294887542724,-0.0433475971221923,0.4803637909162176,-0.0413820872265803,-0.3352141800165782,0.8094254746358038,-0.6217009748805622,-0.3191582497017287,1.9670732737114944,2130,0.0989570901878666,0
1761602708905591552,2.817591428756714,-0.0539729408919811,-0.0506736189126968,0.0264389589428901,-0.2554236054420471,0.5828477740287781,-0.7713930606842041,0.012824147939682,0.0548170208930969,-0.0241391658782959,0.4802306328511755,-0.0413064210774143,-0.3355551490654038,0.8093670637845229,-0.6222289240041926,-0.3197571695556825,1.9669627028833896,2140,0.07861241983441507,0
1761602708915636480,2.827636480331421,-0.0192581042647361,-0.0316677019000053,0.0553217381238937,-0.256327748298645,0.5830481052398682,-0.7709416151046753,0.0228224992752075,0.0524346828460693,-0.0149623155593872,0.4800949519063787,-0.040921924024157,-0.3359383723249729,0.809308084696721,-0.622475457385588,-0.3209882892835522,1.9666976387068564,2150,0.06658988386044624,0
1761602708925681664,2.837681531906128,-0.0223007649183273,-0.003492257092148,0.0941698029637336,-0.2571710348129272,0.5839245319366455,-0.7699968814849854,0.0233148336410522,0.0415332317352294,0.0039141178131103,0.4797741498217103,-0.0407048247414144,-0.3366670052887552,0.8092065623520766,-0.6235546607451442,-0.3223411676996188,1.9665356860914285,2160,0.09683734695750687,0
1761602708935725568,2.8477256298065186,-0.0439727716147899,0.0101673621684312,0.1232696250081062,-0.2572916448116302,0.5854777693748474,-0.7687761783599854,0.0232675969600677,0.0378742814064025,0.0195391178131103,0.4792377874952747,-0.0409301378422684,-0.3375450202396409,0.8091472454795636,-0.6254692884301692,-0.3229592960947287,1.9669051559059427,2170,0.13127216135414865,0
1761602708945770496,2.8577704429626465,-0.1190984174609184,0.0183925349265337,0.1725146621465683,-0.2565383911132812,0.5877530574798584,-0.7672902941703796,0.0326919555664062,0.0263521671295166,0.0313283801078796,0.4784568107329812,-0.0416662351208692,-0.3385539553284808,0.8091503416202543,-0.6282787705350724,-0.3226592811998646,1.9679336449652485,2180,0.21043770346176932,0
1761602708955814656,2.867814540863037,-0.1811292916536331,0.0442909784615039,0.2014376670122146,-0.2558611333370209,0.5907522439956665,-0.7652103304862976,0.0449999272823333,-0.008309006690979,0.0240604281425476,0.4775458391121517,-0.0425489758987445,-0.3399770713654397,0.8090458263768899,-0.6319908291657874,-0.3226806120625942,1.9688161051759787,2190,0.27449343299858403,0
1761602708965859584,2.877859592437744,-0.2502076923847198,0.0851196348667144,0.2141894102096557,-0.2548725605010986,0.5931232571601868,-0.7637046575546265,0.0464527904987335,-0.0399311184883117,0.0232566595077514,0.4768028101052272,-0.0434347834629502,-0.3409708162706269,0.8090188018633055,-0.6349326061431788,-0.3221091883470131,1.9698131131852303,2200,0.34018575075139396,0
1761602708975903488,2.8879034519195557,-0.3268502652645111,0.1273946613073349,0.2369394600391388,-0.2522074282169342,0.5962574481964111,-0.7621473073959351,0.0433146059513092,-0.0407307147979736,0.0142987966537475,0.4759106215825464,-0.0452366282499264,-0.3418771811262905,0.8090628442350372,-0.6388310613315995,-0.3195741874616327,1.9716561621195905,2210,0.4233211586452188,0
1761602708985948672,2.8979485034942627,-0.2390498518943786,0.1613219976425171,0.2300898134708404,-0.2484465390443802,0.5998663902282715,-0.7605489492416382,0.0395537167787551,-0.0242743492126464,-0.0111643075942993,0.4748971760433552,-0.0476219232786281,-0.3427210074322655,0.8091645231567123,-0.6433341128441032,-0.3157392594281076,1.9741319230705077,2220,0.36893216297463516,0
1761602708995993600,2.9079935550689697,-0.0881402343511581,0.141356810927391,0.2195791155099868,-0.2445327043533325,0.6024388074874878,-0.7597836852073669,0.0239364206790924,-0.0176610350608825,-0.0373201966285705,0.4739497828711169,-0.0497678117578884,-0.3429742509961698,0.8094834262048252,-0.646553145058418,-0.311375829595494,1.977144201001846,2230,0.27561828109758496,0
1761602709006037504,2.9180374145507812,-0.054320354014635,0.1226604878902435,0.2360836118459701,-0.2412600815296173,0.6042990684509277,-0.7593525052070618,0.0238834023475646,0.0028938651084899,-0.0300304293632507,0.4730148457627759,-0.0514090328896005,-0.3430464546906649,0.8098970204033041,-0.6488858512759349,-0.3076317073054672,1.980190367101552,2240,0.2715359422470376,0
1761602709016082432,2.9280824661254883,-0.1030735075473785,0.0914162844419479,0.2081742137670517,-0.2385849803686142,0.6065593361854553,-0.7583950161933899,0.0380387008190155,0.0208057761192321,-0.0034000277519226,0.4720407561054338,-0.0529041427054478,-0.3435165848513429,0.8101697644293308,-0.6517257233573719,-0.3047895849544239,1.982769517884585,2250,0.2496349100122432,0
1761602709026126592,2.938126564025879,-0.1068209409713745,0.056379035115242,0.1757690608501434,-0.2361519485712051,0.6089367270469666,-0.7572504878044128,0.0491096973419189,0.0032153725624084,0.0082880854606628,0.4711096563445768,-0.0543509441684098,-0.3441231240595353,0.8103585573973021,-0.6547194704925576,-0.3022966551645185,1.9850417537693112,2260,0.2132699504915706,0
1761602709036171776,2.948171615600586,-0.116735890507698,0.0654329806566238,0.1595565378665924,-0.2336097508668899,0.6098025441169739,-0.7573423385620117,0.0468116551637649,-0.0246432423591613,0.0209226608276367,0.4704601241666012,-0.0554731800287837,-0.3438772549739897,0.8107641160909442,-0.6558113922433534,-0.2991999963192986,1.9875644576771283,2270,0.2082475254743948,0
1761602709046215424,2.9582154750823975,-0.1426792740821838,0.0677147135138511,0.1621308326721191,-0.2312580794095993,0.6096078157424927,-0.7582203149795532,0.0275379866361618,-0.0147439241409301,0.0296894311904907,0.4700640801120612,-0.0562746785081753,-0.3431078669994007,0.8112643858251506,-0.6555657289027127,-0.2960386883121214,1.9899681995883685,2280,0.22633838512686386,0
1761602709056260608,2.9682605266571045,-0.1260646134614944,0.0351879261434078,0.1452274769544601,-0.2291434854269027,0.6093000769615173,-0.7591090798377991,0.0119346529245376,0.0108475685119628,0.0155941247940063,0.4696841882660375,-0.0569433407113079,-0.342349108982344,0.8117580927676505,-0.6551776176822904,-0.293160919970467,1.992258224584302,2290,0.19550318917099066,0
1761602709066305536,2.9783055782318115,-0.0757408216595649,0.0101148979738354,0.1282061636447906,-0.2270986288785934,0.60884028673172,-0.7600919008255005,0.0161916464567184,0.02189701795578,0.0083523988723754,0.4692756322856501,-0.0575210800735111,-0.3415338445905662,0.8122969229381211,-0.6545978432774968,-0.2903351795796554,1.9946604116571045,2300,0.14925080778073513,0
1761602709076349440,2.988349437713623,-0.054102636873722,0.0021626991219818,0.1248793303966522,-0.2257373183965683,0.6078025102615356,-0.7613269686698914,0.0222308486700058,0.0269173383712768,0.0054065585136413,0.4689826702178822,-0.0576605905626799,-0.3406050055789865,0.8128460667067473,-0.6532903428027499,-0.2882473775602695,1.996719708690884,2310,0.13611252603819482,0
1761602709086394624,2.99839448928833,-0.0504437871277332,0.0048365797847509,0.1221924722194671,-0.2243179529905319,0.6078647971153259,-0.7616966962814331,0.0177292227745056,0.0303645730018615,-0.0004492998123168,0.4685017464913423,-0.058104241899498,-0.340258061639461,0.8132370053740762,-0.6533687472667516,-0.2864012328994658,1.9986481194146064,2320,0.132283666531086,0
1761602709096438528,3.0084385871887207,-0.0532456971704959,0.0089085530489683,0.1084960997104644,-0.2223817259073257,0.6092404127120972,-0.761165201663971,0.0022889524698257,0.0203067064285278,-0.0073742270469665,0.467783529195716,-0.0591017672426398,-0.3404766810250348,0.8134870781558711,-0.6551023736894301,-0.2842483270946851,2.0007074420819353,2330,0.12118527236005813,0
1761602709106483712,3.0184836387634277,-0.0611394718289375,0.0120957242324948,0.0987803563475608,-0.2202187329530716,0.6104841828346252,-0.7607974410057068,-0.0043906569480896,0.0089921355247497,-0.0086269378662109,0.4671192152487306,-0.0601799033598649,-0.3405578453533915,0.8137557730969928,-0.6566717936340717,-0.2817571850337166,2.002834389935966,2340,0.11679854605422578,0
1761602709116528384,3.0285284519195557,-0.0322814621031284,0.015656903386116,0.0858581662178039,-0.2184287905693054,0.6110436320304871,-0.7608643770217896,-0.0050667077302932,0.0042822957038879,-0.0060728788375854,0.4666352368361834,-0.0609482853222036,-0.3403720457379441,0.8140539399960643,-0.6573783255996779,-0.2795616720863709,2.0046958475998022,2350,0.09305297483391882,0
1761602709126572544,3.0385725498199463,-0.0174092389643192,0.0106460992246866,0.0758120119571685,-0.217442125082016,0.6118037700653076,-0.7605360746383667,-0.006160169839859,0.0029728412628173,-0.0030137300491333,0.4662257047445927,-0.0614585151176904,-0.3405213996853544,0.8141877360131482,-0.658338929563808,-0.2784772591358427,2.0058213367745124,2360,0.07851039540731215,0
1761602709136617728,3.0486176013946533,0.0105965640395879,-0.0101555846631526,0.0693328082561492,-0.2171204388141632,0.612929105758667,-0.7597213983535767,-0.0099303424358367,0.007584810256958,-0.0115493535995483,0.4657927845625916,-0.0617834753415251,-0.3410602730772115,0.8141852754912969,-0.6597623573656177,-0.2783692466766249,2.006434848006583,2370,0.07086932601612278,0
1761602709146661632,3.058661460876465,0.0473547093570232,0.0033497037366032,0.0541213639080524,-0.2163304835557937,0.6138409376144409,-0.759210467338562,-0.0105829834938049,-0.0009564161300659,-0.0075131654739379,0.4653407445189509,-0.0622381927048867,-0.3413519986762016,0.8142869775770608,-0.6609168625322556,-0.2775849595705504,2.007472873484356,2380,0.07199174289235531,0
1761602709156706560,3.068706512451172,0.033049538731575,0.0298249870538711,0.041944857686758,-0.2150778174400329,0.6146045327186584,-0.7589485049247742,-0.0212655812501907,-0.0055499672889709,0.0046607851982116,0.464940305287404,-0.06287133915668,-0.3414277927636045,0.8144352770937858,-0.6618845183777199,-0.2761487326344852,2.008722358629799,2390,0.06116512854148053,0
1761602709166750720,3.0787506103515625,0.0243421029299497,0.0575910694897174,0.0369603969156742,-0.2138649374246597,0.615281343460083,-0.7587428092956543,-0.029543250799179,-0.002732515335083,0.0126338005065917,0.464664600387435,-0.063511376758747,-0.3414599556482909,0.8145294565951605,-0.6627428349144909,-0.2747395881779073,2.0096925181842904,2400,0.0726315372285752,0
1761602709176795392,3.0887954235076904,0.0144407358020544,0.0878339260816574,0.0278105735778808,-0.2132324576377868,0.6153915524482727,-0.7588315010070801,-0.0312591195106506,-0.0085800290107727,0.02262544631958,0.4646520096845712,-0.063821598401471,-0.341337168458645,0.8145638846435703,-0.6628825931823608,-0.2739367608143752,2.0100116456624835,2410,0.09325642832616694,0
1761602709186840576,3.0988404750823975,0.0138493478298187,0.0941724181175232,0.0253358781337738,-0.2127972245216369,0.6151286959648132,-0.7591666579246521,-0.0278796553611755,-0.0091258883476257,0.0288200378417968,0.4647951772621384,-0.0639890456226635,-0.3410601982101101,0.8145850823594011,-0.6625491911960484,-0.2732902962194554,2.010046183282016,2420,0.0984995202537675,0
1761602709196884736,3.108884572982788,0.0069232657551765,0.0953314304351806,0.0243137553334236,-0.2123407572507858,0.614863932132721,-0.7595089077949524,-0.0198217183351516,-0.0080981850624084,0.0289333462715148,0.4649353323291443,-0.064163937771118,-0.3407763684985781,0.8146101020301819,-0.662213388090207,-0.2726158523682653,2.0101002038527116,2430,0.09862642615419086,0
1761602709206929664,3.118929624557495,0.0004283152520656,0.0996463075280189,0.0170379113405942,-0.2119254469871521,0.6147336363792419,-0.759730339050293,-0.0140419602394104,-0.0095548033714294,0.0343732833862304,0.4650927595518692,-0.0643713421858321,-0.3405747616103298,0.8145881622527863,-0.6620482022890842,-0.272033149982287,2.010014282286652,2440,0.10109332559953509,0
1761602709216973568,3.128973484039306,-0.0098152682185173,0.1013752371072769,0.0127912331372499,-0.2115661799907684,0.6146396994590759,-0.7599063515663147,-0.0119292885065078,-0.0088505744934082,0.0402103662490844,0.4652782663126508,-0.0645774218729741,-0.3404064757212351,0.8145361803480283,-0.6619291489039368,-0.2715344734439181,2.0098080356836965,2450,0.10264937327587308,0
1761602709227018496,3.1390185356140137,-0.0100069819018244,0.085439383983612,0.0035853078588843,-0.2113712728023529,0.6144536733627319,-0.7601110935211182,-0.0085383802652359,-0.0095647573471069,0.0376837253570556,0.4655045471578878,-0.0646978877016418,-0.3402332260809392,0.8144698036464535,-0.6616933422303543,-0.2712269001560237,2.00946246184135,2460,0.08609809785776637,0
1761602709237063680,3.1490635871887207,-0.0107428133487701,0.0853168740868568,-0.0019444799982011,-0.2117317616939544,0.6143617630004883,-0.7600850462913513,-0.0048667341470718,-0.0142793655395507,0.0382375717163085,0.4657761430290941,-0.0646221467486316,-0.3402667227624131,0.8143065649835411,-0.6615768150857793,-0.2716759077457598,2.008648142747791,2470,0.08601254585851122,0
1761602709247107584,3.159107446670532,-0.0178903713822364,0.0748156607151031,-0.0161858219653368,-0.2123957574367523,0.6144950985908508,-0.759791910648346,-0.0036076307296752,-0.0170525312423706,0.0387836694717407,0.466062078864741,-0.0644914448661511,-0.3405068269823521,0.8140528285170013,-0.661745850218764,-0.2725863949506221,2.007506445301652,2480,0.07860934619449104,0
1761602709257152512,3.1691524982452393,-0.040698479861021,0.0709109380841255,-0.0188926588743925,-0.2129031121730804,0.6147409081459045,-0.7594510912895203,-0.002474695444107,-0.0197702050209045,0.0361997485160827,0.4663409319675152,-0.064463697370406,-0.3407622228655934,0.8137885191276695,-0.662057409693676,-0.2733222434221858,2.006405870184322,2490,0.08391459922035482,0
1761602709267196672,3.17919659614563,-0.0606843419373035,0.0761029347777366,-0.0148251252248883,-0.2131014466285705,0.6151928305625916,-0.7590293288230896,-0.0067471712827682,-0.0231212973594665,0.0327414870262146,0.4665753927546539,-0.0646212081978898,-0.341041683622814,0.8135244339709572,-0.6626305171836205,-0.2737088837331984,2.005468671112417,2500,0.09845826717996627,0
1761602709277241344,3.189241409301758,-0.0936681181192398,0.0686601996421814,-0.0216215103864669,-0.2130783796310424,0.6158374547958374,-0.7585129737854004,-0.0112411081790924,-0.0251239538192749,0.0274033546447753,0.4667772718502289,-0.06492582775144,-0.3413622040190343,0.8132500072288823,-0.6634484265425974,-0.273857844785697,2.0046263299380973,2510,0.11813309899556584,0
1761602709287285504,3.1992855072021484,-0.1206154823303222,0.0871845185756683,-0.0314018800854682,-0.2129229307174682,0.6167059540748596,-0.7578505873680115,-0.0097485780715942,-0.0186377167701721,0.0303725600242614,0.4669897290931366,-0.0653668463705068,-0.3417628947330713,0.8129242395156278,-0.664551291470821,-0.2738953027646554,2.003704244180385,2520,0.15210296818257504,0
1761602709297330688,3.2093305587768555,-0.1406552493572235,0.0925305485725402,-0.0430947579443454,-0.2126772105693817,0.6177290678024292,-0.7570860385894775,-0.0030668228864669,-0.0108259916305542,0.0298521518707275,0.4672607797220307,-0.0659234801066421,-0.342214967255762,0.8125333932335292,-0.6658516550919026,-0.2738574544260881,2.0026007940612063,2530,0.17378998749398558,0
1761602709307375104,3.2193751335144043,-0.1581122279167175,0.0927214622497558,-0.0392947830259799,-0.2123619467020034,0.6188607811927795,-0.7562498450279236,0.0061546862125396,-0.0068917870521545,0.021157681941986,0.4675460854021503,-0.0665533194513394,-0.3427035775132205,0.8121118451262725,-0.6672915336188622,-0.273758971555732,2.001437353463884,2540,0.18745886522536018,0
1761602709317419008,3.229418992996216,-0.1564496159553527,0.0888231247663497,-0.0337572693824768,-0.2120217680931091,0.6200338006019592,-0.7553839087486267,0.0164040923118591,-0.0077901482582092,0.0219092369079589,0.4677991203019315,-0.0671951547360635,-0.3432096222710716,0.8116994738495643,-0.6687857935424986,-0.2736399077717233,2.0003419685808113,2550,0.18304530330493865,0
1761602709327464192,3.239464044570923,-0.1417430788278579,0.0821326971054077,-0.0282952152192592,-0.2116930931806564,0.6211052536964417,-0.7545954585075378,0.0194628834724426,-0.0162773728370666,0.0222346186637878,0.468037177395633,-0.0677932203323276,-0.343666062952585,0.8113192440391477,-0.6701521977975534,-0.2735080194425902,1.9993323073213911,2560,0.16624529928305695,0
1761602709337507840,3.2495079040527344,-0.1201981008052825,0.0615818835794925,-0.0178969036787748,-0.2113955020904541,0.6220315098762512,-0.7539156079292297,0.0161745697259902,-0.0155099034309387,0.0226076245307922,0.4682307820394193,-0.0683117208670069,-0.3440577209705664,0.8109979625243444,-0.6713346003566644,-0.2733765938392267,1.9984957812366808,2570,0.13623586526198733,0
1761602709347553024,3.2595529556274414,-0.0873613283038139,0.0412382632493972,-0.0073108379729092,-0.2112073898315429,0.6227271556854248,-0.7533938884735107,0.0134229809045791,-0.0073096752166748,0.0210330486297607,0.4683549244874078,-0.0686769127421226,-0.3443639773573325,0.8107654463808862,-0.672223359655888,-0.2733251352530029,1.9978993159248393,2580,0.09688159985621352,0
1761602709357597952,3.2695980072021484,-0.0630549192428588,0.0373250134289264,-0.0078565198928117,-0.2111221402883529,0.6231821775436401,-0.7530413866043091,0.0112014859914779,3.248453140258789e-05,0.0229694247245788,0.4684549048467046,-0.0689073241478036,-0.3445737673353822,0.810598935940755,-0.6728050579264495,-0.2733418212243142,1.9974408447817824,2590,0.07369399143091061,0
1761602709367642112,3.279642105102539,-0.0465706847608089,0.0298289470374584,-0.0085447691380977,-0.2110924422740936,0.6235476136207581,-0.7527472376823425,0.0046257674694061,0.0124844908714294,0.0144964456558227,0.4685504911390688,-0.0690818574124435,-0.3447522187502468,0.8104529994942142,-0.673272374980847,-0.2734068380662982,1.997013059066164,2600,0.05596077054578076,0
1761602709377687040,3.289686918258667,-0.028764259070158,0.0208602212369442,-0.0071231741458177,-0.2110561430454254,0.623821496963501,-0.7525304555892944,-0.0028873533010482,0.018695592880249,-0.0040918588638305,0.4686291967824897,-0.069221950970116,-0.3448812687386967,0.8103406537892279,-0.6736227300186897,-0.2734369938144776,1.9966826944312377,2610,0.03623908166360001,0
1761602709387731200,3.2997310161590576,-0.0293671991676092,0.0213811341673135,0.0006842375732958,-0.2109200656414032,0.6240581274032593,-0.7523724436759949,-0.0075705349445343,0.0222126245498657,-0.0168384313583374,0.468664127700603,-0.0693751353272711,-0.3449650464672927,0.8102717087974013,-0.6739255299277767,-0.2733239368904546,1.9965379860000985,2620,0.03633254004728264,0
1761602709397776128,3.3097760677337646,-0.0444340296089649,0.0207768641412258,-0.0121069252490997,-0.2106322348117828,0.624392569065094,-0.752175509929657,-0.0109406560659408,0.030636727809906,-0.0157840251922607,0.468686918037851,-0.0696225029566901,-0.3450578789295132,0.8101977508267522,-0.6743536131388539,-0.2730371655054128,1.9964528936851924,2630,0.05052364505675152,0
1761602709407820032,3.319819927215576,-0.0471996888518333,0.0266440398991107,-0.0183249618858099,-0.2102911621332168,0.6247028112411499,-0.7520133256912231,-0.0141961425542831,0.030173897743225,-0.0106514692306518,0.468745581820655,-0.0699006835854723,-0.3451191604823879,0.8101137185977745,-0.6747508780612291,-0.2726725665560455,1.996323252148011,2640,0.057214680965392666,0
1761602709417864960,3.329864978790283,-0.0605597048997879,0.0345648154616355,-0.0087144132703542,-0.2099043279886245,0.625081479549408,-0.7518067359924316,-0.0135301202535629,0.0240121483802795,-0.0050444602966308,0.4688086330748764,-0.0702236422846224,-0.3452032481603838,0.8100134805053681,-0.675235900561033,-0.2722665824426897,1.9961696800023951,2650,0.07027193838291952,0
1761602709427910144,3.3399100303649902,-0.067423403263092,0.0240023843944072,-0.0022079553455114,-0.2095066159963607,0.6256953477859497,-0.7514069080352783,-0.0180171877145767,0.0260990858078002,-0.0097320079803466,0.468826166294036,-0.0706101533339495,-0.3454138683956139,0.8098799998023251,-0.6760226019588148,-0.2719133356091802,1.9959999176826535,2660,0.07160240799723275,0
1761602709437954304,3.349954128265381,-0.0714956447482109,0.0199852716177701,0.0069008544087409,-0.2091841846704483,0.6265394687652588,-0.7507930994033813,-0.0250534862279891,0.0216233730316162,-0.0129245519638061,0.4687710498992082,-0.0710092183644409,-0.3457761439761289,0.809722347962841,-0.6771051986828017,-0.2717263677462395,1.9958337801731871,2670,0.07455642219935893,0
1761602709447998976,3.359998941421509,-0.0619563348591327,0.02468535117805,0.0203562993556261,-0.2088822573423385,0.6274071931838989,-0.7501523494720459,-0.0254469960927963,0.0102728605270385,-0.0056612491607666,0.4686731206214652,-0.0713890398465044,-0.3461609998673794,0.8095812595896356,-0.6782189926385,-0.2715737020567085,1.9957479603147548,2680,0.0697304303401069,0
1761602709458043136,3.3700430393218994,-0.0608202293515205,0.0228546950966119,0.0280594918876886,-0.208594799041748,0.628073513507843,-0.7496744990348816,-0.0264515727758407,0.0106593370437622,-0.0025990009307861,0.4685693444233319,-0.0716932355388662,-0.3464431107956484,0.8094936921904332,-0.6790750387907653,-0.2713825535086229,1.9957834055483223,2690,0.07077268167397582,0
1761602709468088064,3.3800880908966064,-0.0469125658273696,0.0116440188139677,0.0413046367466449,-0.2083399891853332,0.6285703778266907,-0.7493288516998291,-0.0252568125724792,0.0152590274810791,-0.0122525691986083,0.4684469526463231,-0.0719186930461425,-0.3466457375734292,0.8094577587696291,-0.6797136609853297,-0.271186050654059,1.9959441296825005,2700,0.06358022509727068,0
1761602709478132992,3.3901329040527344,-0.0365773737430572,0.0040359003469347,0.0376023091375827,-0.208212748169899,0.6290956139564514,-0.7489233613014221,-0.0195704400539398,0.0076230764389038,-0.0188073515892028,0.4682815055281406,-0.0720789479857428,-0.3469048238198891,0.8094282631758982,-0.6803892089200508,-0.2711680941751047,1.996121845857312,2710,0.05261298712321905,0
1761602709488177152,3.400177001953125,-0.0300996657460927,0.0018552038818597,0.0336009077727794,-0.2081781923770904,0.6295497417449951,-0.7485512495040894,-0.0127080529928207,-0.0012538433074951,-0.0163413286209106,0.4681254106882665,-0.0721786376957619,-0.3471521565788905,0.8094036034863548,-0.6809735371037943,-0.2712535181930212,1.996264114339788,2720,0.04514922660051444,0
1761602709498222080,3.410222053527832,-0.0238907728344202,0.0005654352717101,0.0264471247792243,-0.2081516087055206,0.6299119591712952,-0.7482538819313049,-0.0063564479351043,-0.0067124962806701,-0.0143650770187377,0.4680008464564391,-0.0722576667576082,-0.3473497924804273,0.8093838769885647,-0.6814398267145744,-0.271323126806654,1.996377300057462,2730,0.03564462305538135,0
1761602709508265984,3.4202659130096436,-0.0226690471172332,0.0039131618104875,0.0234411265701055,-0.2081725448369979,0.6302058696746826,-0.7480005025863647,-0.0003845691680908,-0.0143153667449951,-0.0105901956558227,0.4679026292935721,-0.0723043203274238,-0.3475224418027113,0.8093622607081101,-0.68181832217555,-0.2714365866332034,1.9964368344651364,2740,0.03284333946836257,0
1761602709518310912,3.4303109645843506,-0.0184039957821369,0.0083989901468157,0.0110379848629236,-0.2082767784595489,0.6303722262382507,-0.7478312849998474,0.0012760758399963,-0.0227978229522705,-0.00831800699234,0.4678740590732511,-0.0723015509949494,-0.3476447277906989,0.8093265312004271,-0.682032632497069,-0.2716243697102203,1.996350950150828,2750,0.0230453293764561,0
1761602709528355072,3.440355062484741,-0.0171392261981964,0.0161362383514642,0.002505041193217,-0.2084535062313079,0.6304725408554077,-0.7476974129676819,-0.001598984003067,-0.0277656316757202,-0.0070327520370483,0.4679054645110653,-0.0722705247007131,-0.3477473985351937,0.8092670400006183,-0.682161867640144,-0.2718899676079966,1.9961134369944744,2760,0.023672906331667853,0
1761602709538400256,3.450400114059448,-0.0089787691831588,0.0267404150217771,-0.0053768507204949,-0.2086823582649231,0.6305540204048157,-0.7475649118423462,-0.0006987452507019,-0.0299070477485656,-0.0048154592514038,0.4679871321573371,-0.0722318263854539,-0.3478506947588799,0.809178923965265,-0.6822668302433893,-0.2722198393422738,1.9957327654792616,2770,0.02871547692885861,0
1761602709548444928,3.460444927215576,-0.0095028122887015,0.0319396369159221,-0.0132282050326466,-0.208904430270195,0.6305603384971619,-0.74749755859375,-0.0054662972688674,-0.0325989127159118,-0.0047149658203125,0.4681170554781118,-0.0721918333313284,-0.3479074110679039,0.809082946596109,-0.6822749874329267,-0.2725187603260789,1.9952801868806311,2780,0.03585288351166426,0
1761602709558489088,3.470489025115967,-0.0013671214692294,0.0350313000380992,-0.0272902287542819,-0.2090856879949569,0.6303662657737732,-0.7476105093955994,-0.0100000202655792,-0.0274304747581481,-0.0085692405700683,0.4683161446969882,-0.072132690608454,-0.3478384787104764,0.8090026003978066,-0.6820249436544561,-0.2727044589501475,1.99479683284397,2790,0.04442766693100136,0
1761602709568534016,3.480534076690674,0.008290366269648,0.0375082418322563,-0.0315833315253257,-0.2092274874448776,0.6300263404846191,-0.747857391834259,-0.0115061402320861,-0.0240235328674316,-0.0055300593376159,0.4685617053842399,-0.072062184324329,-0.3476756397415673,0.8089366776292869,-0.6815870955425056,-0.2727947090163628,1.9943064204609249,2800,0.0497303248377745,0
1761602709578577920,3.490577936172486,0.0073305629193782,0.0478663370013237,-0.0376087352633476,-0.2092178463935852,0.6296196579933167,-0.7482024431228638,-0.0101272165775299,-0.0273705720901489,-0.0028503537178039,0.4688288927975267,-0.0720454311251413,-0.3474308999908769,0.8088885040004162,-0.6810635829303776,-0.2726630837133204,1.9938882607406572,2810,0.06131345968666112,0
1761602709588623104,3.5006229877471924,-0.0075029446743428,0.0501134805381298,-0.0447209738194942,-0.2090970873832702,0.6292426586151123,-0.7485533356666565,-0.0087068527936935,-0.027314007282257,-0.004483163356781,0.4691307839531675,-0.0721023434559599,-0.3471665250475937,0.8088219641721002,-0.6805784158447188,-0.2723918811811878,1.9934306637828056,2820,0.06758417425548416,0
1761602709598668032,3.5106680393218994,-0.0100481277331709,0.0456407032907009,-0.0430194810032844,-0.2090077698230743,0.6288726925849915,-0.748889148235321,-0.0021586120128631,-0.0292022824287414,-0.0089996457099914,0.4694526266900138,-0.0721561861304857,-0.3469134106599346,0.8087390665467379,-0.6801024435661688,-0.2721650330840597,1.9929011699384032,2830,0.06351940186749133,0
1761602709608712192,3.52071213722229,-0.0031895893625915,0.0293175540864467,-0.0492086634039878,-0.2091065943241119,0.6284481883049011,-0.7492178082466125,0.0021363943815231,-0.0269467830657959,-0.0074502825736999,0.469776689013846,-0.0721098008039432,-0.346686142111116,0.8086524652894073,-0.6795566353012206,-0.2721738320964845,1.9922895158992369,2840,0.05736885053686062,0
1761602709618757120,3.530756950378418,0.0150767657905817,0.0270195119082927,-0.0576213225722312,-0.2093193978071212,0.6278989911079407,-0.7496187686920166,0.0055992901325225,-0.0242460370063781,-0.0048673152923583,0.470123952795369,-0.0719813951878688,-0.3464235839978156,0.8085745957599935,-0.678850738862118,-0.2722986833260044,1.99162742856028,2850,0.06540320867847041,0
1761602709628801024,3.5408010482788086,0.0222471617162227,0.0275150276720523,-0.0537732318043708,-0.2096335291862487,0.6272326111793518,-0.7500886917114258,0.0070120841264724,-0.0246019959449768,-0.0060148239135742,0.4704905551758741,-0.0717774595428033,-0.3461266513032479,0.8085066352642907,-0.677994864077566,-0.2725249003120092,1.9909272269306928,2860,0.06437059430289706,0
1761602709638846208,3.5508460998535156,0.0383164063096046,0.0274202190339565,-0.0549716539680957,-0.2099877595901489,0.6265248656272888,-0.7505809664726257,0.0009575933218002,-0.0192403197288513,-0.0095356106758117,0.4708442550040408,-0.0715364741582153,-0.345820836985428,0.808452979554846,-0.6770864326498649,-0.2727925958692672,1.9902599746815208,2870,0.0724009540292178,0
1761602709648890880,3.5608909130096436,0.0491075366735458,0.0244230981916189,-0.0524990893900394,-0.2103685140609741,0.6257880926132202,-0.7510887384414673,-0.0042158067226409,-0.0107215642929077,-0.0093635320663452,0.4711888954853543,-0.0712702792279307,-0.3455085701904297,0.8084091028922077,-0.6761414851892817,-0.273087306369325,1.98961606418204,2880,0.0759222778254476,0
1761602709658935040,3.570935010910034,0.0512852035462856,0.0312266740947961,-0.0485253855586051,-0.210700586438179,0.6250024437904358,-0.7516496777534485,-0.0056995600461959,-0.0020928978919982,-0.0103437304496765,0.4715367541391435,-0.0710105029523988,-0.345156020132693,0.8083798466166918,-0.6751346911438785,-0.2733031287090023,1.989020600682956,2890,0.07720097357817345,0
1761602709668980224,3.580980062484741,0.0602517649531364,0.0233778394758701,-0.0460215732455253,-0.2109650671482086,0.6241898536682129,-0.7522505521774292,-0.00374136865139,0.0014662742614746,-0.0139695405960083,0.4718571053023975,-0.0707596811023503,-0.3447720942887735,0.8083788222623762,-0.6740941226161861,-0.2734215089144385,1.9885465512426124,2900,0.0793396733199778,0
1761602709679023872,3.5910239219665527,0.056112952530384,0.0328515022993087,-0.0482703447341918,-0.2111012190580368,0.62331223487854,-0.7529397010803223,-0.0039561688899993,0.0016572475433349,-0.0144705772399902,0.4721793848263476,-0.0705444457739304,-0.3443161890782813,0.8084037335358928,-0.6729713509617136,-0.2733511875700045,1.9881766970096817,2910,0.08098092877805448,0
1761602709689069056,3.60106897354126,0.054276268929243,0.0358868725597858,-0.0573199428617954,-0.2111263573169708,0.6225094199180603,-0.7535965442657471,-0.0043125003576278,0.0027499794960021,-0.0089004039764404,0.4725156112094039,-0.0704088244991311,-0.3438667356447346,0.808410358082822,-0.6719450698469177,-0.2731555285167305,1.9877910867541453,2920,0.08671422513452626,0
1761602709699113216,3.6111130714416504,0.0437370724976062,0.0378893055021762,-0.055020835250616,-0.2111027389764785,0.6218236684799194,-0.7541690468788147,-0.0059840530157089,0.001360535621643,-0.0079464316368103,0.4728402893805346,-0.0703286631576936,-0.3434666791040002,0.8083974895777029,-0.6710691477895105,-0.272929280638254,1.987393367084828,2930,0.07984875261250816,0
1761602709709158144,3.6211581230163574,0.0379767902195453,0.034582857042551,-0.0524774305522441,-0.2110600918531417,0.621199905872345,-0.7546948790550232,-0.0017847567796707,-0.0016625523567199,-0.005971074104309,0.4731559110011903,-0.0702735306892319,-0.3430950351243076,0.8083755020605962,-0.6702729594250221,-0.2726960026269294,1.9869930267647056,2940,0.07343086077372697,0
1761602709719203072,3.631202936172486,0.0255451537668705,0.0359325483441352,-0.0423129424452781,-0.2110616266727447,0.6206471920013428,-0.7551490664482117,-0.0005320012569427,-0.0022389888763427,0.0011207461357116,0.4734485185823662,-0.0702128123057695,-0.3427763692018816,0.8083446770509984,-0.6695678631888596,-0.2725418788626593,1.9865834338226929,2950,0.06110718460094597,0
1761602709729246976,3.641247034072876,0.0219094064086675,0.0365088544785976,-0.0319333598017692,-0.2110756039619445,0.6202883720397949,-0.7554398775100708,6.181001663208008e-05,0.002636432647705,0.0061112642288208,0.4736971960231603,-0.0701925450970706,-0.3425683323556032,0.8082888759913018,-0.6691102910649175,-0.2724592420876262,1.986164379659937,2960,0.05322272083188556,0
1761602709739292160,3.651292085647583,0.0230766683816909,0.0392196886241436,-0.0269860066473484,-0.2110311686992645,0.6200202703475952,-0.7556723952293396,-0.0008829087018966,0.0088707208633422,0.0078086256980896,0.4738955841131172,-0.0702067601201601,-0.3423957067521378,0.8082445386371032,-0.668768534737145,-0.272324943442517,1.985851076468928,2970,0.052905209139970745,0
1761602709749337088,3.66133713722229,0.0251774042844772,0.0308179128915071,-0.017734806984663,-0.2109300196170807,0.6197623610496521,-0.7559121251106262,-0.0031202882528305,0.0072365403175354,0.0068276524543762,0.4740608623564759,-0.0702352145994545,-0.3422147731864737,0.8082216904156578,-0.668439831322212,-0.2721186335619851,1.9856450707537976,2980,0.043567979299891584,0
1761602709759380992,3.6713809967041016,0.0250620879232883,0.0374939255416393,-0.0172178857028484,-0.2108040452003479,0.619498610496521,-0.7561633586883545,-0.0002860128879547,0.0050283074378967,0.0073841214179992,0.4742115652779289,-0.0702663973290057,-0.3420247648811246,0.8082109754659046,-0.6681038323055004,-0.2718780482427707,1.985492291401267,2990,0.048273784724972374,0
1761602709769426176,3.6814260482788086,0.025902584195137,0.0341231599450111,-0.0195668824017047,-0.210704356431961,0.6192632913589478,-0.7563838958740234,4.152953624725342e-05,0.0030969381332397,0.0092830657958984,0.4743658532461981,-0.0702969910114224,-0.3418572567611719,0.8081886576571267,-0.6678041024370961,-0.2716803256797666,1.9852997611046,3000,0.04709773667110886,0
1761602709779470080,3.69146990776062,0.0179495848715305,0.0313817039132118,-0.0185157321393489,-0.2106624096632003,0.6190384030342102,-0.7565796971321106,0.0047603100538253,0.0017501711845397,0.0080140233039855,0.4745249502808828,-0.0703077012721042,-0.3417118268084868,0.808155909492284,-0.6675176821021824,-0.2715619627967529,1.985057222311382,3010,0.04061811509921266,0
1761602709789515008,3.701514959335327,0.0189248342067003,0.0331345945596694,-0.0219788178801536,-0.2105577886104583,0.6188238859176636,-0.7567843198776245,0.0101640820503234,0.0026513338088989,0.009027361869812,0.4746799183241397,-0.0703475859129498,-0.3415538788419311,0.8081282640217023,-0.667244560292959,-0.2713637908703483,1.984853837301383,3020,0.04403543052808416,0
1761602709799559168,3.7115590572357178,0.0156731158494949,0.0290168169885873,-0.0298769548535347,-0.210514485836029,0.6186540126800537,-0.756935179233551,0.0118297636508941,0.0033246874809265,0.010292112827301,0.4748436295862606,-0.0703791693169271,-0.3414369291765252,0.8080787324221496,-0.6670283975164165,-0.2712592154311235,1.9845688400907615,3030,0.04450005235840748,0
1761602709809604096,3.721604108810425,0.0097758453339338,0.0389287993311882,-0.0342838652431964,-0.2104817032814026,0.6185835003852844,-0.7570018768310547,0.0107593983411788,0.000938594341278,0.0134563446044921,0.4750244434725889,-0.0704464567705914,-0.3413742053056042,0.8079929922636522,-0.6669386253921653,-0.2711962677239803,1.9841791249102685,3040,0.05278638068076428,0
1761602709819649024,3.7316489219665527,0.01814323104918,0.0298476908355951,-0.0405580066144466,-0.210460215806961,0.618541955947876,-0.7570418119430542,0.0077319741249084,-0.0027888417243957,0.0145797133445739,0.4752276557598084,-0.0705278702078102,-0.3413281428551836,0.8078858356843913,-0.6668857114210629,-0.271156306954174,1.9837115501522864,3050,0.053525819766339786,0
1761602709829693184,3.7416930198669434,0.0153736416250467,0.0149384159594774,-0.0312548764050006,-0.2105870842933654,0.6184610724449158,-0.7570725679397583,0.0047002732753753,-0.007026195526123,0.0094072222709655,0.4754025860843898,-0.0705192185501105,-0.3413074199296651,0.8077923747981556,-0.6667828428731569,-0.2713013881583626,1.9832532188255392,3060,0.037899504314510515,0
1761602709839738112,3.7517380714416504,0.0075527369044721,0.0116725815460085,-0.0227087903767824,-0.2106803804636001,0.6184200048446655,-0.7570802569389343,0.0078605562448501,-0.0037349462509155,0.0123445987701416,0.4755133128735986,-0.0705113553144736,-0.3413033992544675,0.8077297399085976,-0.6667305261217252,-0.2714131384993243,1.9829508109020877,3070,0.026626718819130493,0
1761602709849782016,3.761781930923462,0.0095228105783462,0.0176480486989021,-0.0288568772375583,-0.2107385993003845,0.6183983087539673,-0.7570818066596985,0.0070032328367233,0.0025275945663452,0.0152757763862609,0.4756309427123601,-0.0705283097312936,-0.3412987866653414,0.8076609781904172,-0.6667029492432965,-0.2714839904343009,1.9826394182404852,3080,0.035140530845355664,0
1761602709859826944,3.771826982498169,-0.0013769753277301,0.0300914030522108,-0.025167066603899,-0.2106921076774597,0.6183850765228271,-0.7571054697036743,0.0020281821489334,0.0057145953178405,0.0128275752067565,0.4757693664991369,-0.0706027794924271,-0.3412660230188974,0.8075866917640725,-0.6666861013550941,-0.2714189094432179,1.9823297409589824,3090,0.03925264118691718,0
1761602709869872128,3.781872034072876,-0.0038882030639797,0.0396839752793312,-0.0290035270154476,-0.2104889750480651,0.6184406876564026,-0.7571164965629578,0.0013825595378875,0.0051859617233276,0.00948166847229,0.4759130337419877,-0.0707710833674448,-0.3412230862255243,0.8075053642813923,-0.6667568914502494,-0.2711661104315789,1.9820555184686872,3100,0.04930659789899431,0
1761602709879916288,3.7919161319732666,-0.0175044126808643,0.0500782914459705,-0.0331948101520538,-0.2102078795433044,0.6185577511787415,-0.7570990324020386,0.0005673766136169,0.000994861125946,0.005832552909851,0.4760807164523487,-0.071004153590861,-0.3411874731722794,0.8074011389810737,-0.6669058105485707,-0.2708274085776609,1.9817309750262877,3110,0.06257903130027229,0
1761602709889960960,3.8019609451293945,-0.0320582874119281,0.0558392107486724,-0.0350508578121662,-0.2099063247442245,0.6187973618507385,-0.7569868564605713,0.0049197673797607,-0.0008622407913208,0.0034926533699035,0.4762737697755148,-0.0712979335618124,-0.3412083887331181,0.8072525933615458,-0.6672108580392343,-0.2704957177795309,1.981285619610624,3120,0.07330971205910669,0
1761602709900005120,3.812005043029785,-0.0361547619104385,0.0521773621439933,-0.0406011529266834,-0.2096774876117706,0.6190537214279175,-0.7568407654762268,0.0073611885309219,-0.0003403425216674,0.0053300857543945,0.4764905558915201,-0.0715755510928027,-0.3412573392057438,0.8070794555720959,-0.6675372173148375,-0.2702646470673746,1.9807313992392523,3130,0.07535315221065308,0
1761602709910050048,3.822050094604492,-0.0344734415411949,0.0543802641332149,-0.0455838367342948,-0.2095545828342437,0.6192402839660645,-0.7567221522331238,0.010534182190895,-0.0011677742004394,0.0084769129753112,0.4767448466115793,-0.0717993790486819,-0.3412971854292473,0.8068925417889814,-0.667774779267338,-0.2701541233989826,1.9800641960870715,3140,0.07888927348069094,0
1761602709920094976,3.83209490776062,-0.0233033467084169,0.0533339045941829,-0.0411267727613449,-0.2093770653009414,0.6194172501564026,-0.7566263675689697,0.0101583302021026,-0.006334364414215,0.0101511478424072,0.4769903736330628,-0.0720403184099,-0.3413165781343028,0.8067175857748367,-0.6680001857260914,-0.2699687646163585,1.9794539255072128,3150,0.07126684211354807,0
1761602709930139136,3.8421390056610103,-0.0127794332802295,0.059804692864418,-0.042369220405817,-0.2091542780399322,0.6195880770683289,-0.7565481066703796,0.0068837851285934,-0.0065968036651611,0.0098593235015869,0.4772228503031111,-0.0722934894993956,-0.3413203589086417,0.8065558463030147,-0.6682177968282884,-0.2697218020055058,1.9789052923880095,3160,0.0743980244453299,0
1761602709940184064,3.8521840572357178,0.0027995272539556,0.0552509538829326,-0.0371459648013114,-0.2089743018150329,0.6196612119674683,-0.7565379738807678,0.0018972754478454,-0.0025805234909057,0.0043559670448303,0.4774633725957951,-0.0724985649529042,-0.3412842883661834,0.8064103814925376,-0.668310971837925,-0.2695042339642883,1.9783681565912827,3170,0.06663578587245633,0
1761602709950227968,3.8622279167175297,0.0181703940033912,0.051955122500658,-0.0340410768985748,-0.2087908089160919,0.6195997595787048,-0.7566389441490173,-0.0014905780553817,-0.0035719275474548,-0.0012497901916503,0.4776853871976407,-0.0726521476294053,-0.3411776421277582,0.8063102177611802,-0.668232708193227,-0.2692446450311785,1.9779550363664484,3180,0.0647170216304145,0
