time,seconds_elapsed,rotationRateX,rotationRateY,rotationRateZ,gravityX,gravityY,gravityZ,accelerationX,accelerationY,accelerationZ,quaternionW,quaternionX,quaternionY,quaternionZ,pitch,roll,yaw,timestamp,omega_mag,isSwing
1761597263507122432,6.738122463226318,-0.1593924909830093,0.0477749556303024,-0.6244379878044128,-0.5426433682441711,0.5966072678565979,-0.5912681221961975,0.1724041104316711,0.3372306227684021,-0.1128487586975097,0.2086375283267279,0.2175165372486452,-0.3962985020440762,0.8672395987012426,-0.6392669221994618,-0.7425421330802767,2.4131046343158866,0,0.6462284527784815,0
1761597263517167360,6.748167276382446,-0.0486350879073143,0.1662342250347137,-0.6772713661193848,-0.5458758473396301,0.5937032699584961,-0.5912157893180847,0.2631457448005676,0.3358316421508789,-0.1425488591194152,0.2120728900733485,0.2180932589443038,-0.3960144481756559,0.8663908450195622,-0.6356531859884078,-0.745545697404619,2.4055850183229097,10,0.6990677311347319,0
1761597263527213312,6.75821328163147,0.0600006096065044,0.2013991028070449,-0.7032753825187683,-0.5488636493682861,0.5898416042327881,-0.5923137068748474,0.2180073857307434,0.2251760363578796,-0.1736775040626526,0.215860911323608,0.2184663636360612,-0.3951146735433046,0.8657718380218036,-0.6308626921221793,-0.7473418266558993,2.398383494554861,20,0.7340013184058696,0
1761597263537259264,6.768259286880493,0.0729046911001205,0.135775625705719,-0.6824313402175903,-0.5519506931304932,0.5855655670166016,-0.5936863422393799,0.1293126940727234,0.1083583831787109,-0.1600215435028076,0.2195033234237261,0.2190160923417895,-0.3939400765883245,0.8652522958429222,-0.6255776042793068,-0.7489841678131675,2.3918347366897077,30,0.6996160723077766,0
1761597263547305472,6.778305292129517,-0.07926706969738,0.131252035498619,-0.6586624383926392,-0.5551058650016785,0.5818209648132324,-0.5944256782531738,0.0764529109001159,0.0634427070617675,-0.1797595024108886,0.2230373444467669,0.2196123301497844,-0.3931381281949582,0.8645618575536318,-0.620965831578638,-0.7512064148709827,2.3849398231952024,40,0.6762740368447374,0
1761597263557351424,6.78835129737854,-0.3088877499103546,0.1949961185455322,-0.6648644208908081,-0.5579966306686401,0.579273521900177,-0.5942071080207825,0.0692423582077026,-0.0099223256111145,-0.1574561595916748,0.2267916821402435,0.2198381777297204,-0.3931508942417741,0.8635214196025872,-0.6178371383493891,-0.7539813851979758,2.376545114804236,50,0.7586038666253783,0
1761597263567397376,6.7983973026275635,-0.4850898683071136,0.2445327341556549,-0.6549620032310486,-0.5605096220970154,0.5779837965965271,-0.5930966734886169,0.0495996475219726,-0.0701713562011718,-0.0848360061645507,0.2309124847313126,0.2195443517495208,-0.3940202426726362,0.862106558806051,-0.6162558444942667,-0.7571577220047084,2.3663350767275992,60,0.8509310571863511,0
1761597263577443328,6.808443307876587,-0.5124687552452087,0.2197991460561752,-0.6327584385871887,-0.5628376007080078,0.5773897171020508,-0.5914683938026428,0.01967054605484,-0.066296637058258,-0.0303882956504821,0.2350772984797873,0.2190396476497608,-0.3953320607706886,0.8605072945671659,-0.6155280595957126,-0.7605997955355688,2.3554532263038643,70,0.8433973744996451,0
1761597263587488512,6.818488359451294,-0.4317255318164825,0.168342188000679,-0.5804091691970825,-0.565218985080719,0.5767932534217834,-0.5897770524024963,0.0138427019119262,-0.0163227319717407,-0.0099696516990661,0.2390134363961185,0.2186610532477927,-0.3966091652995449,0.8589301352218646,-0.6147976893061757,-0.764138910012445,2.345036241647384,80,0.7426983443977293,0
1761597263597534464,6.828534364700317,-0.3235159814357757,0.1155918836593627,-0.5820646286010742,-0.5677142143249512,0.5757449269294739,-0.5884032249450684,0.0346636772155761,0.0347134470939636,0.0062041282653808,0.2426471303805958,0.2185326430591872,-0.3975448225465192,0.8575103174025319,-0.6135149491953453,-0.7675048467190182,2.3356647202124416,90,0.6758870509787707,0
1761597263607580416,6.838580369949341,-0.2110448330640792,0.0715522542595863,-0.5876935720443726,-0.5705754160881042,0.5739649534225464,-0.5873737335205078,0.0411412119865417,0.0841771364212036,0.0144672393798828,0.2460411402242439,0.2188090473790362,-0.3980398608996839,0.8562421330792257,-0.6113395973550448,-0.7708922171410307,2.3272845931191064,100,0.6285247658405734,0
1761597263617626368,6.848626375198364,-0.1310160458087921,0.0542390458285808,-0.5411518812179565,-0.5734585523605347,0.5717232823371887,-0.5867518782615662,0.0328091382980346,0.0896536707878112,0.0029659271240234,0.2491428229956968,0.2192906270589204,-0.3981653799575053,0.8551630459652857,-0.6086047225919266,-0.7739409786562026,2.3200240637092873,110,0.5594215198734311,0
1761597263627672320,6.858672380447388,-0.08022490888834,0.0125521859154105,-0.4897350370883941,-0.576198935508728,0.5693689584732056,-0.5863562822341919,0.0145382285118103,0.0607731938362121,-0.0240715146064758,0.2519092408280507,0.2198628429091222,-0.3980982004695861,0.8542363837438539,-0.6057380519846477,-0.7766612561260039,2.3137637577800643,120,0.49642119206311913,0
1761597263637718528,6.868718385696411,-0.0764272361993789,-0.0175564475357532,-0.4593598246574402,-0.5789134502410889,0.5670665502548218,-0.5859136581420898,-0.0184986591339111,0.0419879555702209,-0.0418329238891601,0.2543969762036074,0.2205459862347589,-0.3979983040315501,0.8533692643934997,-0.6029400722634849,-0.7793886110844649,2.308115024441533,130,0.46600514996345854,0
1761597263647764480,6.878764390945435,-0.1030022278428077,-0.0298782624304294,-0.4547822177410126,-0.5816323161125183,0.5649645924568176,-0.5852512121200562,-0.0314353704452514,0.024985909461975,-0.0525966882705688,0.2567528390952741,0.2212692061404218,-0.398012982953194,0.8524691962693812,-0.6003903760302934,-0.78229682152877,2.30255939418851,140,0.467256926197865,0
1761597263657810432,6.888810396194458,-0.1342312544584274,-0.0179955027997493,-0.4507656097412109,-0.5843377113342285,0.5630295276641846,-0.584420382976532,-0.0286231040954589,0.0094802379608154,-0.0466525554656982,0.2591418986556444,0.221948805485072,-0.3981564101169194,0.85150201261803,-0.5980469785285623,-0.7853274247609169,2.296757581054891,150,0.4706713319502947,0
1761597263667855616,6.898855447769165,-0.1567762345075607,-0.0564803108572959,-0.4483993351459503,-0.5870832204818726,0.5612456798553467,-0.5833837389945984,-0.0303941965103149,-0.0053222179412841,-0.0255181789398193,0.2614821172822472,0.2226546710992205,-0.3984131234079003,0.8504816391877406,-0.5958900946296628,-0.788558833499429,2.2908750127743587,160,0.4783625998970203,0
1761597263677901568,6.9089014530181885,-0.1429264694452285,-0.0831723809242248,-0.4435004293918609,-0.5900158882141113,0.559496283531189,-0.5821042060852051,-0.0339465737342834,-0.0144675374031066,-0.0101504921913146,0.2637300263145556,0.2235060343861365,-0.3987391976225123,0.849410830469558,-0.5937779306744023,-0.7921479502407305,2.285013545689222,170,0.4733267914321428,0
1761597263687947520,6.918947458267212,-0.1128052845597267,-0.1075208857655525,-0.4092482626438141,-0.592991054058075,0.5576909780502319,-0.5808117389678955,-0.0201528072357177,-0.0224127173423767,-0.0134875178337097,0.2659096451396421,0.2244218157354928,-0.399035064340393,0.8483500547003464,-0.5916014110772073,-0.7957737519692534,2.2793235361530537,180,0.4379154182914666,0
1761597263697993472,6.928993463516235,-0.1321619302034378,-0.1076527163386344,-0.3876670598983764,-0.5958248376846313,0.5560554265975952,-0.5794784426689148,-0.0162509679794311,-0.0244697332382202,-0.0198867917060852,0.2679079977645076,0.2253194943997122,-0.3993643706682352,0.8473279748706177,-0.5896322629940347,-0.7993054978852818,2.2739916173325954,190,0.42348746434863477,0
1761597263708039424,6.939039468765259,-0.1313898116350174,-0.127163365483284,-0.4177020192146301,-0.598745584487915,0.5544149875640869,-0.5780379176139832,-0.0298097133636474,-0.0015738010406494,-0.0341598987579345,0.269891736922871,0.2262746674526033,-0.3997259085012595,0.8462727513777744,-0.5876598347042267,-0.8029931810198839,2.2686168875484825,200,0.45597015360492604,0
1761597263718085632,6.949085474014282,-0.1549449563026428,-0.1200436800718307,-0.4120225608348846,-0.6018129587173462,0.5526914000511169,-0.5765009522438049,-0.0532315969467163,0.005749762058258,-0.0535496473312377,0.2719313095374168,0.2272990368264591,-0.4001058076707939,0.8451650165773502,-0.5855902847922263,-0.8068764012026701,2.2630641793711113,210,0.4562685779732723,0
1761597263728131584,6.959131479263306,-0.2149271517992019,-0.0787786990404129,-0.3812736868858337,-0.6045872569084167,0.5513427257537842,-0.5748872756958008,-0.0630915164947509,-0.0326964855194091,-0.0740994811058044,0.2740198665557887,0.2280799549376497,-0.4006693050630465,0.8440122242665158,-0.5839728035822364,-0.8105735100872119,2.2572344829721485,220,0.44471270311801736,0
1761597263738176256,6.969176292419434,-0.2604067623615265,-0.022704504430294,-0.3606845438480377,-0.6069297790527344,0.5504814386367798,-0.5732420086860657,-0.0764808654785156,-0.0657707452774047,-0.0733186602592468,0.2761682338238752,0.2285150153958923,-0.4014472387442755,0.8428238749975278,-0.5829408304881086,-0.8139352139785176,2.251098613157198,230,0.44544417896735927,0
1761597263748222208,6.979222059249878,-0.2359228134155273,-0.026966793462634,-0.3715212047100067,-0.6090611815452576,0.5497283935546875,-0.5717019438743591,-0.0876398682594299,-0.072174072265625,-0.059523582458496,0.2783117682047175,0.2288139135064662,-0.4022352724336715,0.84166114173492,-0.5820390524651069,-0.8170275069665955,2.245021831809453,240,0.4409249226214467,0
1761597263758268160,6.989268064498901,-0.1237536743283271,-0.0652215033769607,-0.4009973406791687,-0.6114606261253357,0.5484083294868469,-0.5704070329666138,-0.0822343826293945,-0.0576246976852417,-0.0332000851631164,0.2803883961744136,0.2293789368236636,-0.4027179807621917,0.8405866672846493,-0.5804596347430728,-0.8201203972576437,2.239463727165146,250,0.42469716698404975,1
1761597263768314112,6.999314069747925,0.0052925264462828,-0.0488551184535026,-0.4333221912384033,-0.6140606999397278,0.5461931228637695,-0.569739043712616,-0.0584704279899597,-0.0523271560668945,-0.0130094289779663,0.282307489339907,0.2302676520211818,-0.40262549974246,0.8397452456865204,-0.5778128198797692,-0.8228208753141553,2.2350458170042464,260,0.43609970746945215,1
1761597263778360064,7.009360074996948,0.1068630889058113,-0.0602763444185256,-0.4836921393871307,-0.6168641448020935,0.5430213212966919,-0.5697424411773682,-0.0373259186744689,-0.0531378984451293,0.0074560642242431,0.2842370064768764,0.2314143279515362,-0.4019654015240224,0.8390950491814476,-0.5740309605897038,-0.825088591268052,2.231430254390022,270,0.4990100631969775,1
1761597263788406016,7.019406080245972,0.1717306971549987,-0.0757977217435836,-0.5257329344749451,-0.6200428009033203,0.5390645265579224,-0.5700494050979614,-0.0541973114013671,-0.0441609621047973,0.0059472322463989,0.2862514110566651,0.2328581890117485,-0.4009393499259262,0.838501494192986,-0.5693260387967791,-0.8273814730578257,2.228107328893899,280,0.5582399532087402,1
1761597263798452224,7.029452085494995,0.22967629134655,-0.067794919013977,-0.5059882402420044,-0.6232394576072693,0.5346911549568176,-0.5706819891929626,-0.0660610198974609,-0.0606006383895874,-0.0045743584632873,0.2882181551469768,0.2344058990726789,-0.3996409490867845,0.8380162660171064,-0.564142234573609,-0.8293906594333806,2.225298438200137,290,0.559795899515187,1
1761597263808498176,7.0394980907440186,0.2971655428409576,-0.073598176240921,-0.5259265303611755,-0.626364529132843,0.529981791973114,-0.5716527700424194,-0.0805752277374267,-0.084058940410614,-0.017077088356018,0.2901410006051891,0.2359935576174933,-0.3980962823425583,0.8376423645262872,-0.5585791133208767,-0.8310350178034932,2.2229781597722473,300,0.6085415078165952,1
1761597263818542848,7.0495429039001465,0.3728517889976501,-0.1292153745889663,-0.5595952868461609,-0.6298266649246216,0.5246058702468872,-0.5728063583374023,-0.0926312208175659,-0.0673152208328247,-0.0298547744750976,0.2920602497308389,0.2378866457842529,-0.3962407853731352,0.8373196023294698,-0.5522521176878753,-0.8327755679595789,2.221040789600929,310,0.6847349521160375,1
1761597263828589056,7.05958890914917,0.4489922821521759,-0.1424258649349212,-0.5571896433830261,-0.6335565447807312,0.5187134742736816,-0.5740578174591064,-0.0856359601020813,-0.0589814186096191,-0.0361106395721435,0.2938592231119364,0.2400791374065894,-0.3941232193678914,0.8370636502289047,-0.5453454972454296,-0.8346280025132315,2.219656981668818,320,0.729615991551709,1
1761597263838635008,7.069634914398193,0.5489790439605713,-0.1738612949848175,-0.5817548632621765,-0.6373726725578308,0.5122088193893433,-0.5756720304489136,-0.0627921819686889,-0.0615404844284057,-0.0240899324417114,0.2955618517422254,0.2424726125920169,-0.3916261300448723,0.8369463965202373,-0.5377546579738763,-0.8362186390724481,2.2190036116133656,330,0.8185624359392839,1
1761597263848680960,7.079680919647217,0.683517336845398,-0.2027104496955871,-0.601933479309082,-0.6415244340896606,0.5048230886459351,-0.5775812864303589,-0.0673683881759643,-0.0422223806381225,0.0015772581100463,0.2971787410428577,0.2452472110296678,-0.3886684497915378,0.8369441973404932,-0.5291770148151547,-0.83780103103962,2.2190987654750933,340,0.9330655870286662,1
1761597263858726912,7.08972692489624,0.7965275049209595,-0.1776943206787109,-0.5862452983856201,-0.6456201672554016,0.4966749250888824,-0.580076277256012,-0.0748082399368286,-0.0254835486412048,0.004896342754364,0.2986047440168203,0.2482107858090305,-0.3851665274390666,0.8371817451195595,-0.5197635578093732,-0.8388220825177565,2.2203627519475453,350,1.004845703367598,1
1761597263868772864,7.099772930145264,0.8616219162940979,-0.1994068771600723,-0.646072268486023,-0.6497228145599365,0.4878500699996948,-0.5829773545265198,-0.0790674686431884,0.0030251741409301,0.0098724961280822,0.3000173386611813,0.2513032095235248,-0.3812584582372554,0.8375430079475742,-0.5096251583444262,-0.8394910465127605,2.222206389589386,360,1.095246458749683,1
1761597263878819072,7.109818935394287,0.9256829023361206,-0.2204519808292389,-0.718625545501709,-0.6542892456054688,0.4780770540237427,-0.5859590172767639,-0.0973281860351562,0.0532034635543823,-0.0099730491638183,0.3015966229950867,0.2547481499755802,-0.3769932156049465,0.8378657475552086,-0.498464039362153,-0.8404365469371954,2.224068590368543,370,1.1924389234575445,1
1761597263888865024,7.1198649406433105,0.8442525267601013,-0.1981016546487808,-0.7238733172416687,-0.6589866280555725,0.4680270254611969,-0.5888015031814575,-0.1020606160163879,0.0288754403591156,-0.0371749997138977,0.3032800732699043,0.2582811782496284,-0.3726795866099536,0.8381061142910197,-0.4870568448330175,-0.8415865945060466,2.225710010928289,380,1.1296013340687314,1
1761597263898909952,7.129909992218018,0.6679731011390686,-0.1848369836807251,-0.7822884321212769,-0.6636193990707397,0.4585712850093841,-0.5910344123840332,-0.1010442972183227,-0.0344532430171966,-0.0451807975769043,0.305248036367127,0.2615741130571269,-0.3688655360567058,0.8380577578491537,-0.4763868014522328,-0.8431863557665085,2.226065482791197,390,1.0451449494746166,1
1761597263908956160,7.139955997467041,0.5506120324134827,-0.1404792815446853,-0.825652539730072,-0.668269157409668,0.4495556354522705,-0.5927192568778992,-0.107426643371582,-0.0635540783405304,-0.0357139706611633,0.3077532420598506,0.2645911851960523,-0.3655569412085406,0.8376441015748974,-0.4662678149038183,-0.8452398712406703,2.22463827903341,400,1.0023024269872518,1
1761597263919002112,7.1500020027160645,0.460753470659256,-0.0894893258810043,-0.8089348077774048,-0.672631025314331,0.4410313367843628,-0.5941876173019409,-0.1129829883575439,-0.1175602972507476,-0.0139514207839965,0.3104933386325104,0.2672850650336161,-0.3625808650898397,0.837070939334815,-0.4567474922951047,-0.8472407644806066,2.222348426915142,410,0.9352420132805483,1
1761597263929048064,7.160048007965088,0.4118209481239319,-0.0497164502739906,-0.8657146096229553,-0.6766853332519531,0.4328314661979675,-0.5956121683120728,-0.1195487380027771,-0.1206671893596649,0.023209273815155,0.3134706072297172,0.2696711070163026,-0.3598213617731679,0.8363864236626667,-0.4476313507042216,-0.8490340014936402,2.2193607454766195,420,0.9599635430870103,1
1761597263939094016,7.170094013214111,0.5313465595245361,-0.0635688751935958,-0.9486475586891174,-0.6809149384498596,0.4238441288471222,-0.5972529649734497,-0.1395196318626403,-0.0338905155658721,0.0434504747390747,0.3167308144176965,0.2721928891923187,-0.3567696181666544,0.835648338924604,-0.4376853325144262,-0.8507595478317167,2.216166090725714,430,1.0891750818021697,1
1761597263949139968,7.180140018463135,0.6313377618789673,-0.1171153932809829,-0.9750016927719116,-0.6854897141456604,0.4136607944965362,-0.5991567373275757,-0.1444969177246093,0.0144550502300262,0.0311177968978881,0.3200064241295933,0.2751380856135622,-0.3531581407453909,0.8349697144573033,-0.426471352466762,-0.8525009421718482,2.2136000864670535,440,1.1674466522397484,1
1761597263959186176,7.190186023712158,0.5839012861251831,-0.1139984279870987,-0.9862782955169678,-0.6902071833610535,0.4031892716884613,-0.6008763909339905,-0.1187527179718017,-0.0014101266860961,0.0140996575355529,0.3232191901426409,0.2782754270219317,-0.3494632994962304,0.8342466735162487,-0.4149992826471615,-0.8544786382239217,2.2112133002706686,450,1.1518164913431428,1
1761597263969231104,7.200231075286865,0.5047612190246582,-0.1054340079426765,-0.973425269126892,-0.694803774356842,0.3930353820323944,-0.6023046374320984,-0.1179098486900329,-0.0147395133972167,-0.0065820813179016,0.3265033282579017,0.2812941517879002,-0.3460076246585645,0.8333954309781457,-0.4039303240310989,-0.8565894620845569,2.208376275893495,460,1.101570230551315,1
1761597263979277056,7.210277080535889,0.3960307538509369,-0.0750800967216491,-0.9841349124908448,-0.6991188526153564,0.383545309305191,-0.6034284830093384,-0.162163496017456,-0.055389791727066,-0.0115922689437866,0.3298516526936673,0.2840431314099265,-0.3429362411708166,0.8324134867759577,-0.3936321537738445,-0.8587304559644902,2.204953034659003,470,1.0634843228288964,1
1761597263989323264,7.220323085784912,0.3852415382862091,-0.0608191676437854,-1.0169087648391724,-0.7033548951148987,0.3740932643413543,-0.6044386625289917,-0.2033376097679138,-0.0730526149272918,0.0057753324508666,0.3335470679403561,0.2866307442652934,-0.3400345466246659,0.8312434303723807,-0.3834188680500858,-0.8608904072611439,2.2006336493423775,480,1.089134266277918,1
1761597263999369216,7.230369091033936,0.3481399714946747,-0.0232891030609607,-0.9788569808006288,-0.7073307633399963,0.3647926747798919,-0.6054828763008118,-0.2304286360740661,-0.0827187001705169,0.0302417874336242,0.3372451236706938,0.2890754257902017,-0.3371853628971271,0.8300645619558996,-0.373410135386481,-0.8628229535473743,2.196281178578558,490,1.0391846856722917,1
1761597264009415168,7.240415096282959,0.3454821705818176,-0.023809015750885,-0.9987175464630128,-0.7110382914543152,0.3556709587574005,-0.6065663695335388,-0.2176573872566223,-0.0987129509449005,0.0193166136741638,0.3410225323392599,0.2913355519831596,-0.3344255066902879,0.8288466672153372,-0.3636318698282866,-0.8645219043905708,2.191696390384401,500,1.0570532328289102,1
1761597264019461120,7.250461101531982,0.3622161448001861,-0.0418404825031757,-1.0254300832748413,-0.7148112654685974,0.3462755978107452,-0.6075674295425415,-0.2262288331985473,-0.0741656124591827,0.0243154764175415,0.3448630255391604,0.2936925101576961,-0.3316036865658516,0.8275586175961435,-0.3535981683657345,-0.866320246078996,2.1870410197851116,510,1.0883280834449949,1
1761597264029507072,7.260507106781006,0.4014175534248352,-0.0245860610157251,-1.05607807636261,-0.718585729598999,0.3364709317684173,-0.6086229681968689,-0.2346003055572509,-0.0748437345027923,0.0042833685874938,0.3486850337887411,0.2961706947762298,-0.3285900802103221,0.8262749655336448,-0.3431668069571653,-0.8680620319015562,2.182648835958797,520,1.130062577898941,1
1761597264039552000,7.270551919937134,0.3825666308403015,-0.0240654144436121,-1.1167975664138794,-0.7223337292671204,0.326209157705307,-0.6097718477249146,-0.2265646457672119,-0.079138845205307,-0.0118864774703979,0.3526475904390901,0.2987037604809242,-0.3254076600579157,0.8249398102109966,-0.332290560743958,-0.869697118702033,2.1781773311245978,530,1.1807511065219485,1
1761597264049597952,7.280597925186157,0.3293129503726959,-0.0425532758235931,-1.1613589525222778,-0.7262287139892578,0.3157201111316681,-0.6106657385826111,-0.2422465682029724,-0.064651995897293,0.0077757239341735,0.3568864117479742,0.3012981183277643,-0.3223144125715357,0.8233862446662041,-0.3212154739677627,-0.8716251984588456,2.173005343353577,540,1.207895863545418,1
1761597264059643904,7.290643930435181,0.2851090133190155,-0.0162343215197324,-1.2315473556518557,-0.7301435470581055,0.3050935268402099,-0.6113986968994141,-0.2480974197387695,-0.0675446987152099,0.004312515258789,0.3614217827891963,0.303859875263249,-0.3193271664159474,0.8216286194287991,-0.3100366319824743,-0.8736817773509542,2.1670950731459873,550,1.2642229201703419,1
1761597264069690112,7.300689935684204,0.2275115102529525,0.0134662827476859,-1.3017361164093018,-0.7339659333229065,0.2941985428333282,-0.6121610403060913,-0.2428406476974487,-0.0752349495887756,0.0115599036216735,0.36638049153831,0.3063065080637237,-0.3163792058033586,0.8196619612323155,-0.298616841561475,-0.8756378494073767,2.1602927848310904,560,1.3215368874280395,1
1761597264079736064,7.3107359409332275,0.2180365175008773,0.0126694645732641,-1.3498998880386353,-0.7377219796180725,0.2830471694469452,-0.612903356552124,-0.2550147771835327,-0.0776944160461425,0.0136755108833312,0.3715988225636996,0.3087194895103767,-0.3134335659529697,0.8175365225596677,-0.2869697284553267,-0.8775518590082155,2.152959716101394,570,1.3674538917357337,1
1761597264089782016,7.320781946182251,0.2362884283065796,0.0167806521058082,-1.3996167182922363,-0.7414955496788025,0.2714680135250091,-0.6135873198509216,-0.2513022422790527,-0.0661915242671966,0.0159005522727966,0.3770363928805814,0.3112029188851433,-0.3104176144760742,0.81525280164574,-0.2749179902392941,-0.8795108009618754,2.1452472266018914,580,1.4195213171206056,1
1761597264099827968,7.330827951431274,0.3581027388572693,0.0963114276528358,-1.4800902605056765,-0.7450120449066162,0.258882075548172,-0.6147658824920654,-0.2280867099761963,-0.0570083260536193,0.0114334225654602,0.3826536446260602,0.3137470891046652,-0.3068873064958135,0.812993886167371,-0.2618646402443385,-0.8808916885959553,2.1377953151292637,590,1.5258376853117,1
1761597264109873920,7.340873956680298,0.4544719755649566,0.0688685551285743,-1.5234482288360596,-0.7482633590698242,0.2451178133487701,-0.6164569854736328,-0.2187013626098632,-0.04136723279953,-0.0067881941795349,0.3883777984316616,0.316427276854567,-0.3027297329563407,0.8107966022676997,-0.2476412175266907,-0.8816807586669121,2.1308611925941023,600,1.5912831804563068,1
1761597264119919104,7.350919008255005,0.5359013080596924,0.0025289468467235,-1.5429010391235352,-0.7517620325088501,0.2304842174053192,-0.6178436875343323,-0.2281268835067749,-0.0137789100408554,0.0003510117530822,0.3938674723101177,0.3196070407581495,-0.2982104722056241,0.8085729746697381,-0.232575274090357,-0.8828670749928595,2.124734945843067,610,1.633321837263167,1
1761597264129965056,7.360965013504028,0.5375680327415466,0.0510511063039302,-1.640244483947754,-0.7551249861717224,0.2151966989040374,-0.6192549467086792,-0.2156696915626526,-0.0039692819118499,-0.0247727632522583,0.3995540278367502,0.322871348176573,-0.2934733516480797,0.8062159535594107,-0.2168932453090414,-0.8839371202589699,2.118418641315748,620,1.7268432390930872,1
1761597264140011008,7.371011018753052,0.6438366770744324,-0.0330062434077262,-1.8066638708114624,-0.7586415410041809,0.1983802020549774,-0.6205710172653198,-0.2133890986442566,0.0360710769891738,-0.0257149934768676,0.4056926362510263,0.3265071413054408,-0.2882838303611667,0.8035540671973008,-0.1997050004608501,-0.88517394981554,2.111622531019493,630,1.9182412311660892,1
1761597264150056960,7.381057024002075,0.6439827680587769,-0.0543963871896266,-1.813631534576416,-0.7624311447143555,0.1804234832525253,-0.6214065551757812,-0.2267351150512695,0.0605433285236358,-0.0408096313476562,0.4121291199591189,0.3305731265495511,-0.2828747755951951,0.8005328526350998,-0.1814169785491955,-0.8869559159948577,2.1043655537140964,640,1.925339480638657,1
1761597264160103168,7.391103029251099,0.5668837428092957,-0.0127815660089254,-1.8675847053527832,-0.7657874822616577,0.1625814884901046,-0.6222032308578491,-0.2083640694618225,-0.0046987831592559,-0.0711561441421508,0.4187274565657307,0.3344366670517906,-0.2775797441337765,0.7973512493765756,-0.1633063832956822,-0.8884791020806443,2.0966038358055403,650,1.9517666812297925,1
1761597264170149120,7.401149034500122,0.5344859957695007,-0.0036100386641919,-1.9595260620117188,-0.7687553763389587,0.1443802565336227,-0.6230325698852539,-0.2227454781532287,-0.0153214335441589,-0.0456838607788085,0.4256811843966351,0.338176624332536,-0.2722504117912064,0.7939218763776377,-0.1448866452475632,-0.8897199508841312,2.08809288047779,660,2.0311156293416746,1
1761597264180195072,7.4111950397491455,0.5511264801025391,-0.030982008203864,-1.988129734992981,-0.771558403968811,0.1257210522890091,-0.6236119866371155,-0.2346214056015014,-0.0031777173280715,-0.0425103902816772,0.4327551088148508,0.3420362449941156,-0.2668430299209908,0.7902715633997717,-0.1260546166452634,-0.8910451585487974,2.0793323195606943,670,2.063337133157308,1
1761597264190240256,7.4212400913238525,0.6191644072532654,-0.0068862927146255,-2.011458158493042,-0.7740357518196106,0.1065381616353988,-0.6241140365600586,-0.2221342921257019,-0.0100568383932113,-0.0705270767211914,0.4396732314077152,0.3460452494395273,-0.2611430152503152,0.7866031372013961,-0.1067407419041174,-0.8922186619454244,2.0711248648359737,680,2.104608255140338,1
1761597264200286208,7.431286096572876,0.6332043409347534,-0.0204274021089077,-2.042012929916382,-0.7760711908340454,0.0868099480867385,-0.6246418952941895,-0.2206329107284546,-0.0204952359199523,-0.067481517791748,0.446504410916073,0.3501302102993961,-0.2551232845550172,0.7829142587038703,-0.086919352058893,-0.8930886532996546,2.063349360574839,690,2.1380322313008335,1
1761597264210332160,7.441332101821899,0.6494516730308533,-0.050311230123043,-2.080700635910034,-0.7778885364532471,0.0667120218276977,-0.6248511075973511,-0.2521407604217529,0.0088037028908729,-0.0547143220901489,0.4534145360690019,0.3543259272715136,-0.2490533521004799,0.7789999009986383,-0.066761604335344,-0.894067317777913,2.055349602144796,700,2.180282970569529,1
1761597264220378112,7.451378107070923,0.6764233708381653,-0.0629873499274253,-2.161073923110962,-0.7794736623764038,0.0459576211869716,-0.6247469782829285,-0.2536989450454712,0.0454882830381393,-0.0619900822639465,0.4603999823116521,0.3587159823000843,-0.2427949075603431,0.7748582740322184,-0.0459738154881345,-0.8951423298630511,2.047271272172575,710,2.265338050714981,1
1761597264230424064,7.461424112319946,0.7024377584457397,-0.0657975822687149,-2.2111003398895264,-0.780657172203064,0.0244759246706962,-0.6244800090789795,-0.239759087562561,0.0579215362668037,-0.078019380569458,0.4675857594501036,0.36320420627249,-0.2363105777911788,0.7704567384862618,-0.0244783692802102,-0.8960910902670975,2.0388799991664723,720,2.3209293051237605,1
1761597264240470016,7.471469879150391,0.6847213506698608,-0.0561987459659576,-2.241099119186402,-0.7813582420349121,0.0026471628807485,-0.6240772008895874,-0.2476792335510254,0.060447908937931,-0.0823131799697876,0.4748041824127413,0.3677064920823659,-0.2296809507552916,0.7658979169335829,-0.002647165895218,-0.896843586001033,2.0304267309199457,730,2.344040718317276,1
1761597264250515968,7.481515884399414,0.6758146286010742,-0.026296243071556,-2.2608251571655273,-0.7814345359802246,-0.0192681923508644,-0.6236897110939026,-0.2585282325744629,0.0620690882205963,-0.0935649275779724,0.4821762104602469,0.3720417625754224,-0.2230248221486065,0.761151111285155,0.0192693844390372,-0.897194034320101,2.0215155125660713,740,2.3598193354372317,1
1761597264260560896,7.491560935974121,0.7200215458869934,-0.0059776562266051,-2.280656337738037,-0.780847430229187,-0.041441161185503,-0.6233457922935486,-0.27535080909729,0.0633374899625778,-0.1238923668861389,0.4895116759190642,0.3763046558752761,-0.2161524930603513,0.7563407639546076,0.0414530328537676,-0.8970965061629176,2.0127214286701705,750,2.391622898740547,1
1761597264270607104,7.501606941223144,0.8094481825828552,0.0127104111015796,-2.3053200244903564,-0.7795920968055725,-0.0642029121518135,-0.6229881644248962,-0.2849830985069275,0.0792175382375717,-0.1528144478797912,0.4967489407704811,0.3806232220041835,-0.2088824639027743,0.7514882890151698,0.0642471034893369,-0.8965917769513587,2.004334223765644,760,2.443331399985126,1
1761597264280653056,7.511652946472168,0.8242297768592834,0.0115681812167167,-2.317495584487915,-0.7777465581893921,-0.0874335169792175,-0.6224674582481384,-0.2913757562637329,0.0904394760727882,-0.165114939212799,0.5038749665908286,0.385022073211536,-0.2013064020772818,0.7465546264937929,0.0875453012342279,-0.8958435477687513,1.9962700055158775,770,2.4597305405265737,1
1761597264290699008,7.521698951721191,0.7658876776695251,0.0467381551861763,-2.3698208332061768,-0.7752569913864136,-0.1106916591525077,-0.6218713521957397,-0.2905846834182739,0.0948072522878646,-0.1817327737808227,0.5111135354710385,0.3892814510534265,-0.193711839070164,0.7414166779574374,0.1109189608274612,-0.8947466128695042,1.987738016093557,780,2.490947444538773,1
1761597264300744960,7.531744956970215,0.7068734169006348,0.1083290800452232,-2.413868188858032,-0.7718502879142761,-0.133889764547348,-0.6215471029281616,-0.2869265675544739,0.0798736363649368,-0.1830030679702758,0.5185643214480302,0.3932051130644755,-0.186054264854434,0.7361146029857147,0.1342930529678854,-0.8928508167455315,1.978519367900302,790,2.5175712204990304,1
1761597264310790912,7.541790962219238,0.6843651533126831,0.1532781720161438,-2.4530365467071533,-0.7674606442451477,-0.1570438891649246,-0.6215636730194092,-0.29078209400177,0.0422825217247009,-0.1841309070587158,0.5262351804889905,0.3967724824516201,-0.1782968513702198,0.7306561636945272,0.1576966853923267,-0.8900500379111637,1.9685847462713997,800,2.551320865858753,1
1761597264320837120,7.551836967468262,0.7013523578643799,0.1728785037994384,-2.49900484085083,-0.7622382044792175,-0.180338978767395,-0.6216678023338318,-0.2982628941535949,0.0487471669912338,-0.1743680238723755,0.5339422002005806,0.4001889461175302,-0.1703376663897809,0.725079061907701,0.1813310728459347,-0.8866260963902607,1.9584084928797876,810,2.6013087670543342,1
1761597264330883072,7.561882972717285,0.8053600192070007,0.172771155834198,-2.539217472076416,-0.756290078163147,-0.2042635977268219,-0.6215317249298096,-0.2992366552352905,0.0991610586643219,-0.1593062877655029,0.5415686638735414,0.4037309727301605,-0.1619735950128072,0.7193533297694851,0.2057113844710995,-0.8828934481248593,1.9484169093432009,820,2.669471858500016,1
1761597264340928000,7.571928024291992,0.8911747932434082,0.1623757779598236,-2.562272071838379,-0.749686062335968,-0.2288843095302581,-0.6209532022476196,-0.2906429171562195,0.1207910329103469,-0.1517213582992553,0.5489046514924414,0.4075306677673775,-0.1531083325548155,0.7135687692357215,0.2309314124160697,-0.87904522584979,1.9391522038411535,830,2.717682206495717,1
1761597264350974208,7.581974029541016,0.8754547834396362,0.1395758390426635,-2.5706675052642822,-0.7425427436828613,-0.2536622881889343,-0.6199078559875488,-0.2914996147155761,0.1324159502983093,-0.1440081596374511,0.5562782965672487,0.4114003581620887,-0.144207522069932,0.7074662097994701,0.2564645023187614,-0.8751667544285029,1.9294324873891715,840,2.719234067768623,1
1761597264361020160,7.592020034790039,0.878455400466919,0.1736230254173278,-2.5984151363372803,-0.7346713542938232,-0.2782670855522156,-0.6187289357185364,-0.3068783283233642,0.1660538911819458,-0.1263883113861084,0.5636234171387752,0.4151377454719945,-0.1352633723258381,0.7012084312941514,0.2819894531055333,-0.8708570237331983,1.9193675575162896,850,2.748379534618763,1
1761597264371066112,7.6020660400390625,0.9296252727508544,0.1903845071792602,-2.589674234390259,-0.7259687781333923,-0.3029371798038482,-0.6174126863479614,-0.3095689415931701,0.1568190157413482,-0.123325228691101,0.5709484713508067,0.4187877822390982,-0.126136631292475,0.6947835714077395,0.3077731416217804,-0.8660310470634297,1.909013953466174,860,2.758054032932597,1
1761597264381112064,7.612112045288086,0.9153685569763184,0.1943107992410659,-2.5910959243774414,-0.7166203856468201,-0.3274270296096802,-0.6158300638198853,-0.3212671875953674,0.129322201013565,-0.1423486471176147,0.5780904907896545,0.4223936933810956,-0.1169124693807452,0.6882778217989443,0.3335792160596837,-0.8608972044377489,1.8986771345671536,870,2.7548928057418127,1
1761597264391158016,7.622158050537109,0.8746567368507385,0.2387247085571289,-2.6544926166534424,-0.7063578963279724,-0.3516694009304046,-0.6143184304237366,-0.3340473771095276,0.1647949814796447,-0.1557316184043884,0.5852543822845389,0.4257522079004858,-0.1075910809162478,0.6816424844294251,0.3593538045361434,-0.8549768170268657,1.8877925001517848,880,2.8050570307324785,1
1761597264401204224,7.632204055786133,0.826498806476593,0.3211252987384796,-2.6990115642547607,-0.6948577165603638,-0.3758007287979126,-0.6131448745727539,-0.3274964094161987,0.1829296350479126,-0.1572103500366211,0.592525369093743,0.4287456887514566,-0.0980035756430797,0.6748972022327193,0.3852606747439023,-0.8477885760529082,1.8761768265558805,890,2.8409303332848626,1
1761597264411249152,7.64224910736084,0.7068109512329102,0.3625164330005646,-2.745250940322876,-0.6821423172950745,-0.3993453979492187,-0.6125398874282837,-0.3345507979393005,0.1482925713062286,-0.1708463430404663,0.600205160608164,0.431157071414129,-0.0885079009648392,0.667850008556063,0.4108027233259207,-0.8391067156575898,1.86270801635229,900,2.857866793663039,1
1761597264421295104,7.652295112609863,0.8741171360015869,0.7657142281532288,-2.8057169914245605,-0.6677865982055664,-0.4225460588932037,-0.6127933859825134,-0.3478230834007263,0.1513058841228485,-0.1752161979675293,0.6080730083807077,0.4329171245316718,-0.0786515556392259,0.6607902751672012,0.4362526601472131,-0.8283157992951361,1.848098905082706,910,3.036848182345703,1
1761597264431341056,7.662340879440308,0.7060118317604065,0.2950507700443268,-2.7978708744049072,-0.6516149640083313,-0.4464379549026489,-0.6132627129554749,-0.3416253924369812,0.1789971590042114,-0.1460146307945251,0.6158521853424617,0.4344718809642965,-0.067844149019309,0.6537258608020392,0.4627806158710689,-0.8157097786022466,1.8333496223050971,920,2.900618743187859,1
1761597264441387008,7.672386884689331,0.5336025357246399,0.4708881080150604,-2.9838478565216064,-0.636053740978241,-0.4685118198394775,-0.6131331324577332,-0.3607113361358642,0.2391569912433624,-0.0188553929328918,0.6238011234423831,0.4359276755354578,-0.0583138304021856,0.6460949032235229,0.4876055173107506,-0.8037445576663514,1.8165606459509416,930,3.067542225833306,1
1761597264451432960,7.682432889938355,0.4742670059204101,0.6316362619400024,-2.946465253829956,-0.6182317733764648,-0.4906429350376129,-0.6140512824058533,-0.2647333145141601,0.2951320707798004,-0.1316304802894592,0.6324434163983603,0.4366244773438973,-0.0483055128927253,0.63799764928593,0.5128274628860781,-0.7887906347993201,1.7969240245978628,940,3.050500131507861,1
1761597264461478912,7.692478895187378,0.3295039534568786,0.7501951456069946,-2.8836958408355713,-0.5993062853813171,-0.5107638835906982,-0.6164026856422424,-0.2911661267280578,0.1547000408172607,-0.0767430663108825,0.6409694208498161,0.4362560717675265,-0.0384616353147654,0.6303646559213721,0.5360730910876158,-0.7713361821831697,1.7762085195144988,950,2.9978437774988183,1
1761597264471524864,7.702524900436401,0.3074419200420379,0.7809484004974365,-2.8753600120544434,-0.5794861912727356,-0.5298141241073608,-0.6192679405212402,-0.3344084024429321,0.2370284795761108,-0.0778145194053649,0.6494705967891157,0.4353669302108947,-0.0286645847677875,0.622753534686449,0.5583813545165781,-0.7522244208446615,1.754267174607798,960,2.9953457458798254,1
1761597264481570048,7.712569952011108,0.2579257786273956,0.8378628492355347,-2.896749258041382,-0.5588904619216919,-0.5480552315711975,-0.6223157644271851,-0.3650139570236206,0.3500571846961975,-0.1204363107681274,0.6578868007905849,0.43415066934681,-0.0188497229172961,0.6150958161231462,0.5800373979922254,-0.7317543317027901,1.7312793740354488,970,3.0264989881665136,1
1761597264491616000,7.722615957260132,0.1179454699158668,0.929000735282898,-2.950909376144409,-0.5370166897773743,-0.5653695464134216,-0.6260753273963928,-0.2853251695632934,0.3350229263305664,-0.1207660436630249,0.666491077455397,0.4322986722806247,-0.0089549462604304,0.6073115074953087,0.600881190419001,-0.7089767033817906,1.7062902165336826,980,3.0959359887192153,1
1761597264501661952,7.732661962509155,-0.0300812777131795,1.010138988494873,-3.000046968460083,-0.5137736797332764,-0.5813055038452148,-0.630967915058136,-0.2834980487823486,0.3471593856811523,-0.0863476991653442,0.6754446571506072,0.4295524339387388,0.0008573332870899,0.5993817974487828,0.620332241758332,-0.6833774036653562,1.678599001719316,990,3.165685940252576,1
1761597264511707904,7.742707967758179,-0.0838731676340103,1.1165722608566284,-3.0416173934936523,-0.4891069531440735,-0.5961417555809021,-0.6367020010948181,-0.306257426738739,0.3622855544090271,-0.0787825584411621,0.6845813319020618,0.4260658078007757,0.0108127894337798,0.591353973266917,0.6386869915182061,-0.655040268329096,1.6486739973977076,1000,3.2411733508664056,1
1761597264521754112,7.752753973007202,-0.1708520203828811,1.2082244157791138,-3.037604331970215,-0.4632249772548675,-0.609929621219635,-0.6429685354232788,-0.295594573020935,0.3531089425086975,-0.0488954782485961,0.6937095882574916,0.4219910708561435,0.020958924552929,0.5833106869971574,0.6559717922294332,-0.6243176336378685,1.6170686004918615,1010,3.2735358145830493,1
1761597264531800064,7.762799978256226,-0.2064485847949981,1.248132348060608,-3.044724225997925,-0.4364171922206878,-0.622389018535614,-0.6497476100921631,-0.2867425680160522,0.384412944316864,-0.0112020373344421,0.702817941585727,0.417323374244477,0.0311028692513002,0.5752571431928436,0.6717912430254434,-0.5914597359856018,1.583776190103956,1020,3.297089775668507,1
1761597264541846016,7.772845983505249,-0.2905102074146271,1.417631983757019,-3.026020050048828,-0.408613383769989,-0.6336617469787598,-0.6568925976753235,-0.270555317401886,0.4039101600646972,-0.0048200488090515,0.7117778532215621,0.4121141702088596,0.0414199306698323,0.5672905751827916,0.6862774172418752,-0.5564678534402884,1.5492248410628364,1030,3.3542322467713026,1
1761597264551891968,7.782891988754272,-0.3356966078281402,1.5780028104782104,-3.1016845703125,-0.3789878189563751,-0.6436350345611572,-0.6649077534675598,-0.2453713119029998,0.3132822513580322,-0.0310456752777099,0.720739159780478,0.4059799770692902,0.0522148990023885,0.559454264995356,0.6992384448925051,-0.518057643585063,1.5127728325910608,1040,3.4961739453435507,1
1761597264561937152,7.7929370403289795,-0.3575558364391327,1.6627485752105713,-3.1819088459014893,-0.3476423919200897,-0.6528006196022034,-0.673049807548523,-0.2760453522205353,0.3239737749099731,-0.0202942490577697,0.7297357541077413,0.3993020048354926,0.063505918708644,0.5513714652727945,0.7112755937739873,-0.4767745647409533,1.474154908821279,1050,3.607925013655719,1
1761597264571983104,7.802983045578003,-0.4315508604049682,1.817392110824585,-3.2642006874084473,-0.314562052488327,-0.660871148109436,-0.6813955903053284,-0.2894570827484131,0.3767372965812683,-0.0287331342697143,0.7387473498074971,0.3919680600860982,0.0752545333124969,0.5430930199722952,0.7219789352484998,-0.4324946257918037,1.4333592274181968,1060,3.7608717549634005,1
1761597264582029056,7.813029050827026,-0.4892463982105255,1.9404168128967283,-3.338745355606079,-0.2795432507991791,-0.6675270199775696,-0.6901183724403381,-0.2800270318984985,0.3832252621650696,-0.0134644508361816,0.7478322244803018,0.3837863347252881,0.0874578531425951,0.5346084873439447,0.7308825085255831,-0.3848657060706912,1.3901126948300968,1070,3.892531309509974,1
1761597264592075008,7.82307505607605,-0.5438660383224487,2.047086238861084,-3.3409063816070557,-0.2431647926568985,-0.6727344393730164,-0.6987841725349426,-0.2980339527130127,0.3866931796073913,0.0203936696052551,0.7567717265354093,0.3749822759216611,0.0999810396105378,0.5260121090381007,0.7378983805114896,-0.3348765229392695,1.345343954604099,1080,3.955756285166937,1
1761597264602121216,7.833121061325073,-0.6018233299255371,2.177767038345337,-3.3385579586029053,-0.2056198865175247,-0.6761720776557922,-0.707468569278717,-0.298606812953949,0.400537371635437,0.058939516544342,0.765468433237355,0.3654497482560848,0.1127484351734026,0.5174864926860082,0.7425544314665963,-0.2828492668223757,1.29967548485243,1090,4.031231801409699,1
1761597264612167168,7.843167066574097,-0.5873575806617737,2.2180590629577637,-3.302896022796631,-0.1672009378671646,-0.6781352758407593,-0.7156650424003601,-0.3026019334793091,0.456745445728302,0.0937778353691101,0.7738035205008928,0.3554571191989066,0.1257685085433981,0.5089800545784708,0.7452223835288829,-0.2295134170597654,1.2536726826169011,1100,4.021678389893419,1
1761597264622213120,7.85321307182312,-0.5627363920211792,2.219484567642212,-3.203047275543213,-0.1290373802185058,-0.6788477301597595,-0.7228520512580872,-0.2872071266174316,0.5091090202331543,0.1458867788314819,0.7815817980586758,0.3454535859897506,0.1386931483147586,0.5005556101292725,0.7461922496914398,-0.1766507450926915,1.2085483034121791,1110,3.937295498469952,1
1761597264632258048,7.863257884979248,-0.6209633350372314,2.3077452182769775,-3.1644694805145264,-0.0908746793866157,-0.678059995174408,-0.7293671369552612,-0.2303075492382049,0.5094656944274902,0.1524171233177185,0.7888687289723569,0.3351739962233602,0.1515744852066275,0.4923106050752279,0.7451200077554488,-0.1239551045398667,1.1643586119247735,1120,3.9654949942029547,1
1761597264642304000,7.873303890228272,-0.6211042404174805,2.333064317703247,-3.171144485473633,-0.0521925687789917,-0.6757645606994629,-0.7352674603462219,-0.2075425386428833,0.5129990577697754,0.1432264447212219,0.7958200729227753,0.3244749264785497,0.1645670056494129,0.4840497597916296,0.7420014369834391,-0.0708656005712873,1.1204905086908898,1130,3.985613746432853,1
1761597264652349952,7.883349895477295,-0.7165892124176025,2.4824790954589844,-3.171327590942383,-0.0130244474858045,-0.6719337701797485,-0.7404967546463013,-0.2162541002035141,0.527448296546936,0.1436339616775512,0.802458584796631,0.313355922654444,0.1776505015457673,0.4757190886181384,0.7368167507872704,-0.0175869850234523,1.0770464203432837,1140,4.090662690544963,1
1761597264662395904,7.893395900726318,-0.9081706404685974,2.7268295288085938,-3.209463357925415,0.0278813019394874,-0.665575385093689,-0.7458096742630005,-0.1977574080228805,0.4652885198593139,0.0969907045364379,0.8088596950144162,0.3009032115574691,0.1911868636337082,0.4676011815991504,0.7282644803782862,0.0373665358406712,1.0340778454200112,1150,4.308251180845602,1
1761597264672441856,7.903441905975342,-0.9554614424705504,2.812974452972412,-3.1896982192993164,0.0700344741344451,-0.656920850276947,-0.7506998181343079,-0.2439541518688202,0.463653028011322,0.1027811169624328,0.8149562503248555,0.287414536052179,0.2050438430538553,0.4595610503421726,0.7167275153620095,0.0930229949148783,0.992056198577022,1160,4.3588882265234306,1
1761597264682488064,7.913487911224365,-0.9199476838111876,2.9132778644561768,-3.0790300369262695,0.1122544854879379,-0.6469897031784058,-0.7541904449462891,-0.2761033475399017,0.5211809873580933,0.1346988677978515,0.8204035730871628,0.2736802483049109,0.2190978924638054,0.4517003096540783,0.7036298229997497,0.147756282420462,0.9522565609051358,1170,4.337501311212954,1
1761597264692534016,7.923533916473389,-0.9050986170768738,2.8695271015167236,-2.921502113342285,0.153607964515686,-0.6360155344009399,-0.7562333345413208,-0.2249275296926498,0.5232530832290649,0.2005845308303833,0.8250896752458617,0.2599494902221556,0.233044198324224,0.4442339112570923,0.6893238417156061,0.2003961046964669,0.915647221122846,1180,4.193872183464451,1
1761597264702579968,7.933579921722412,-0.8163474202156067,2.7441136837005615,-2.7800185680389404,0.1929289847612381,-0.6245282888412476,-0.7567977905273438,-0.1928068995475769,0.5835279226303101,0.2939529418945312,0.8291120495666355,0.2467518747053669,0.246403345606219,0.4370037189073029,0.6745273706201927,0.2496114262100233,0.8822140832485971,1190,3.9906247954683263,1
1761597264712625152,7.943624973297119,-0.8585737347602844,2.735142230987549,-2.663795232772827,0.2306093424558639,-0.6124695539474487,-0.7561087012290955,-0.1240114569664001,0.5843323469161987,0.3220114111900329,0.832553528639752,0.2338974001556914,0.259302249791133,0.4300104692369039,0.6591809153840231,0.2960330059871905,0.8515931919574806,1200,3.9133051151034732,1
1761597264722671104,7.953670978546143,-0.8957149982452393,2.6844849586486816,-2.5666913986206055,0.267110139131546,-0.5992434620857239,-0.7546915411949158,-0.0815480351448059,0.5164645910263062,0.3569713234901428,0.8355535577722384,0.2209096221023859,0.2717593693742899,0.4233153618610806,0.6425557849653556,0.3401741724692949,0.8236796955164749,1210,3.82055880559971,1
1761597264732717056,7.963716983795166,-1.0020575523376465,2.682976245880127,-2.528388500213623,0.3025296926498413,-0.5847998857498169,-0.7526519298553467,-0.0902341902256012,0.4739447832107544,0.3488433361053467,0.8381896464403727,0.2077215819662865,0.2837706718477019,0.4168502181570223,0.6246333470831015,0.3821877369137139,0.7982415132051323,1220,3.820370306942303,1
1761597264742763008,7.973762989044189,-1.1491466760635376,2.6920857429504395,-2.469539165496826,0.3372535407543182,-0.5686967968940735,-0.7502293586730957,-0.0830115675926208,0.425828754901886,0.3134617805480957,0.8405637504317522,0.1940087431825367,0.2953742150691253,0.4105696120073044,0.6049206237412951,0.4224662455014829,0.7751019837761092,1230,3.829685028880007,1
1761597264752809728,7.98380970954895,-1.3503042459487915,2.728402853012085,-2.3969666957855225,0.3713676333427429,-0.5506234169006348,-0.7475961446762085,-0.110304981470108,0.3883004188537597,0.3118356466293335,0.8426195524202513,0.1794863813180749,0.3065722832152669,0.4047103165175199,0.5831108612885098,0.4610434077391473,0.7548934494968181,1240,3.874655213777967,1
1761597264762855680,7.993855714797974,-1.5179376602172852,2.6908178329467773,-2.229954242706299,0.4042850434780121,-0.5307862758636475,-0.7448621392250061,-0.1248965859413147,0.3355500698089599,0.2998853325843811,0.8442945609343416,0.1642704383488202,0.3171500528237403,0.3994970137196171,0.5595280458937105,0.4972714753647481,0.7382863584642535,1250,3.8101615812159646,1
1761597264772901888,8.003901720046997,-1.6184788942337036,2.645031690597534,-2.0591936111450195,0.4353827536106109,-0.5100293159484863,-0.7418301701545715,-0.1267584562301635,0.2974134087562561,0.287255585193634,0.845491616029953,0.1488265096868406,0.3270100819634665,0.3950431872922147,0.535218902862804,0.5307341157921088,0.725427587871323,1260,3.7223574389794525,1
1761597264782946560,8.013946533203125,-1.6521183252334597,2.5516467094421387,-1.897071123123169,0.4646255075931549,-0.4888654351234436,-0.7383317351341248,-0.0777846574783325,0.260166734457016,0.3169144988059997,0.8462317415221343,0.133415206186113,0.3362060673521022,0.3912259604741355,0.5107887220287304,0.5616790264226466,0.7157467745320669,1270,3.583193371361209,1
1761597264792992512,8.023992538452148,-1.5997986793518066,2.4585812091827393,-1.779593825340271,0.4918819665908813,-0.4680138528347015,-0.734176516532898,-0.0520321428775787,0.272899717092514,0.3402098417282104,0.8465749204597286,0.1184714425186998,0.3447843614775698,0.3878133567841778,0.4870419692056966,0.5902914244652513,0.7083488428030686,1280,3.4308791234596803,1
1761597264803038720,8.034038543701172,-1.5448352098464966,2.4338924884796143,-1.7414922714233398,0.5179217457771301,-0.447537213563919,-0.7290181517601013,-0.0079272389411926,0.277066022157669,0.3105611801147461,0.84658241257147,0.1039655867455052,0.3531034816154276,0.3844571792180174,0.4640094554635841,0.6176966229002396,0.7020876217050562,1290,3.367958402725037,1
1761597264813084672,8.044084548950195,-1.5297391414642334,2.423352003097534,-1.672922134399414,0.5431279540061951,-0.4272197782993316,-0.7228383421897888,0.0080347657203674,0.2429699003696441,0.2807759642601013,0.8462563092343597,0.0896941075534025,0.3612973824510765,0.3811422049530652,0.4414155629496742,0.6443852176484586,0.6968337070658576,1300,3.318343749464189,1
1761597264823130624,8.054130554199219,-1.513400912284851,2.41544246673584,-1.5940250158309937,0.5673843026161194,-0.4071302115917206,-0.7157653570175171,-0.0184341669082641,0.2187146842479705,0.2458862066268921,0.8454924973829832,0.0755630072394464,0.3693339406819912,0.378186594837104,0.4193098658774832,0.6702713830778597,0.6932663822714759,1310,3.265832264907452,1
1761597264833176576,8.064176559448242,-1.531954050064087,2.4589834213256836,-1.492884397506714,0.5909820795059204,-0.3872470557689667,-0.707658052444458,-0.0295501947402954,0.172800064086914,0.2081005573272705,0.8443685797993247,0.0615857687866026,0.3773303209076816,0.3753275016763295,0.3976438109742377,0.695794010079679,0.6906768438629473,1320,3.259169603162945,1
1761597264843222528,8.074222564697266,-1.4820157289505005,2.3743388652801514,-1.363979697227478,0.6134592890739441,-0.3679047524929046,-0.6987945437431335,-0.0303599834442138,0.1394044160842895,0.204699695110321,0.8428433921728041,0.0478938276445123,0.3851089732372359,0.3728435193566828,0.3767547387651061,0.720460090285368,0.6896040928849451,1330,3.113566489170463,1
1761597264853268736,8.084268569946289,-1.4240988492965698,2.3568129539489746,-1.2615916728973389,0.6346064209938049,-0.3495794236660003,-0.689252495765686,-0.0006037354469299,0.1254583299160003,0.179242730140686,0.8409821143686437,0.0347954255507641,0.3926360027180924,0.3706419702607693,0.3571221679708068,0.744143715001971,0.689594114869522,1340,3.028900523555274,1
1761597264863313664,8.094313621520996,-1.3383450508117676,2.3055408000946045,-1.2069056034088137,0.6548346877098083,-0.3320577442646026,-0.678917646408081,0.0635032653808593,0.0863912403583526,0.1731040477752685,0.8388311752169609,0.0221619637847541,0.40006250908315,0.368539218604945,0.3384842627471013,0.7673435737206634,0.6901822224531331,1350,2.9263128662999818,1
1761597264873359616,8.10435962677002,-1.2666897773742676,2.2271623611450195,-1.1532009840011597,0.673939049243927,-0.3154164254665375,-0.668070912361145,0.0551564693450927,0.1081562936305999,0.181010365486145,0.836530763211466,0.0101443973131735,0.4072611245116486,0.3664040136868766,0.3208954446148283,0.7897707465372695,0.6909698080660834,1360,2.809738009940922,1
1761597264883405568,8.114405632019043,-1.298495888710022,2.267622947692871,-1.1170520782470703,0.692347526550293,-0.2991100549697876,-0.6566490530967712,0.0623978972434997,0.0940624475479126,0.1380181312561035,0.8340127131028796,-0.0016851669320416,0.4143339504499095,0.364344932736339,0.3037598688961239,0.8118549559849683,0.6923631610778087,1370,2.8418322877003552,1
1761597264893451776,8.124451637268066,-1.244005799293518,2.271555185317993,-1.057870388031006,0.7103732824325562,-0.2830700576305389,-0.6443920731544495,0.0553127527236938,0.0445141494274139,0.1282330155372619,0.8311828015733858,-0.0134722854441268,0.4214528049194736,0.362396368422908,0.2869935950305166,0.8340627576058848,0.6944543331889254,1380,2.7976066818789658,1
1761597264903497728,8.13449764251709,-1.1189589500427246,2.2325942516326904,-0.972912609577179,0.7275728583335876,-0.2681393623352051,-0.6314578652381897,0.0199704766273498,0.0271878242492675,0.1270785927772522,0.8281154881406185,-0.024660798669559,0.4285591109069993,0.3604909225554328,0.2714611443550823,0.8560037976703263,0.6967025048743639,1390,2.680131558371403,1
1761597264913543680,8.144543647766113,-0.9818177819252014,2.172273874282837,-0.911401867866516,0.7438945770263672,-0.2545885145664215,-0.6179042458534241,0.0185108184814453,0.0586199164390563,0.0980525016784668,0.8248662059798834,-0.0350523939952551,0.4356824743170279,0.3585358707340321,0.2574221789936517,0.877653143216704,0.6987045065405859,1400,2.5521350486498284,1
1761597264923589632,8.154589653015137,-0.8336458802223206,2.0935754776000977,-0.8488673567771912,0.7591198086738586,-0.2423551380634308,-0.6041533350944519,0.0359241962432861,0.1009672135114669,0.0918089747428894,0.8215906069824261,-0.0445600566687698,0.4426485563874321,0.3564626809065983,0.2447926217640413,0.8985846840073517,0.7002286295908589,1410,2.4080281400810124,1
1761597264933634816,8.164634704589844,-0.7343013286590576,2.073458433151245,-0.7827775478363037,0.7735217809677124,-0.231338232755661,-0.5900394320487976,0.0718761086463928,0.077346533536911,0.0739567875862121,0.8181988021266028,-0.0533469788222016,0.4495935652681159,0.3543590563713617,0.2334530071270721,0.9191558573709456,0.7014778888509722,1420,2.3347738658536272,1
1761597264943680768,8.174680709838867,-0.6500548720359802,1.9861551523208616,-0.7317063808441162,0.7871221303939819,-0.2213883399963379,-0.5756961703300476,0.0946069955825805,0.047590747475624,0.0884220004081726,0.814721779274838,-0.0614903190036636,0.4564765675586176,0.3522451795523894,0.2232379049592194,0.9393099862088404,0.7025091416655709,1430,2.2142217263671706,1
1761597264953726720,8.18472671508789,-0.6710729002952576,1.944045066833496,-0.6869662404060364,0.7998260855674744,-0.2119589895009994,-0.5615618228912354,0.0822539925575256,0.0751487016677856,0.0841448307037353,0.8112506765546028,-0.0692655526779045,0.4630565410518089,0.3502190454185518,0.2135790580267287,0.9586590535017118,0.7037498637793478,1440,2.1683110189379993,1
1761597264963772672,8.194772720336914,-0.7080865502357483,1.958456039428711,-0.6371326446533203,0.8120548129081726,-0.2027517855167389,-0.547228217124939,0.0943477749824523,0.0376516878604888,0.0424827337265014,0.8075955256415963,-0.0770429443115094,0.4695213274306851,0.3484302374301783,0.2041672546913552,0.977815889677054,0.7057427055112359,1450,2.177814185802473,1
1761597264973818880,8.204818725585938,-0.7097655534744263,1.9443753957748413,-0.5938458442687988,0.8238497376441956,-0.1938142925500869,-0.5326422452926636,0.0807217955589294,-0.023531898856163,0.0309637784957885,0.8037544342158316,-0.0847995628974375,0.4759074761238932,0.3468429815858103,0.1950486743177036,0.9968655114370952,0.7083784881948092,1460,2.1533730998943845,1
1761597264983864832,8.214864730834961,-0.6325690150260925,1.8977245092391968,-0.5637997984886169,0.8350667953491211,-0.185428962111473,-0.5179572105407715,0.0617074966430664,-0.0153003931045532,0.0300269126892089,0.7998476931496912,-0.0922436314128101,0.4821955183320367,0.3452859528784622,0.1865083813904739,1.015613980216146,0.7110495740417451,1470,2.0783099106038145,1
1761597264993910784,8.224910736083984,-0.579217791557312,1.883266806602478,-0.5507060289382935,0.8457660675048828,-0.17763651907444,-0.5031154155731201,0.0692729949951171,-0.0097413957118988,0.0064876079559326,0.795977066552172,-0.0991998432171821,0.4884687226446134,0.3434796381181175,0.1785842520270215,1.0341621891010393,0.7130171054623696,1480,2.0458407184373395,1
1761597265003955712,8.234955549240112,-0.5246288180351257,1.8659977912902832,-0.526299238204956,0.8560117483139038,-0.1702654957771301,-0.4881123304367065,0.0863710641860961,-0.0254742354154586,0.0043171048164367,0.7920358354858085,-0.1059150487527239,0.4946977263405205,0.34166573264456,0.1710990909461764,1.052564135262201,0.7149605206080202,1490,2.008525340130979,1
1761597265014001664,8.245001554489136,-0.5390691161155701,1.8371732234954832,-0.5006234645843506,0.8657917976379395,-0.1632343381643295,-0.4730317890644073,0.085120677947998,-0.0095256716012954,0.0323885083198547,0.7880577876711634,-0.1124071925163221,0.5008480042172283,0.3398247160780616,0.1639680758119991,1.0707540127707866,0.7168499314771073,1500,1.9789959116609728,1
1761597265024047616,8.25504755973816,-0.5571548938751221,1.8303773403167725,-0.4616129398345947,0.875126302242279,-0.1564242988824844,-0.4579142332077026,0.0931201577186584,-0.0045864433050155,0.0542124509811401,0.7839534945254213,-0.1188901712538886,0.5068609428610465,0.3381923930354455,0.1570693409050574,1.0887182624945726,0.7193378271697337,1510,1.968194423815096,1
1761597265034093568,8.265093564987183,-0.4943453073501587,1.7934845685958862,-0.4367484152317047,0.883997917175293,-0.1500848680734634,-0.4427442252635956,0.0995532274246215,-0.0093847215175628,0.0449323058128356,0.7797518679881127,-0.1251802842135771,0.5127940989468669,0.3366887295823537,0.1506541110254964,1.1064744914843063,0.722066782677865,1520,1.9109456713622448,1
1761597265044139520,8.275139570236206,-0.4706010818481445,1.7973840236663818,-0.4321885406970978,0.8924601674079895,-0.1441089510917663,-0.4274898469448089,0.095988929271698,0.00978584587574,0.0288997292518615,0.7755498831918458,-0.1311861604801559,0.5186957417355804,0.3350632665994852,0.1446124706813807,1.12408812211389,0.7244525646438635,1530,1.9075748062599494,1
1761597265054185728,8.28518557548523,-0.5282776951789856,1.828929424285889,-0.4013084173202514,0.9006866812705994,-0.1382508277893066,-0.4118864238262176,0.0733429789543151,0.0190186649560928,0.0297300219535827,0.7712400331093316,-0.1371447211513559,0.5246409391989197,0.3333649722822909,0.1386950620276852,1.141886122977003,0.7268154692499142,1540,1.9455355581572955,1
1761597265064231680,8.295231580734253,-0.5570049285888672,1.8261871337890625,-0.3740421831607818,0.9086253643035888,-0.1325053572654724,-0.3960329294204712,0.049489140510559,0.0203227400779724,0.021719604730606,0.7667144064223333,-0.1432556531443324,0.530529313046565,0.3319116399458497,0.1328962061067016,1.159763722153376,0.7299677418257143,1550,1.9455388695352978,1
1761597265074277632,8.305277585983276,-0.5925197005271912,1.8515033721923828,-0.3475046753883362,0.9162410497665404,-0.1269693225622177,-0.3799753487110138,0.0552098751068115,-0.0018606334924697,-0.003584861755371,0.7620531830451214,-0.1493542954720449,0.5363819737405332,0.3305490951739127,0.1273129683466348,1.177672628372177,0.7334436803503492,1560,1.9748174174260644,1
1761597265084322816,8.315322637557983,-0.6040962338447571,1.870999097824097,-0.3127389550209045,0.9236108064651488,-0.1216586679220199,-0.3635137379169464,0.063754916191101,-0.0119320228695869,-0.0094110369682312,0.7571332935624815,-0.1555745087126458,0.5422542733389548,0.3294026122568144,0.1219607928013356,1.1958375912227752,0.7376095771285328,1570,1.9908228293325279,1
1761597265094368768,8.325368642807007,-0.5274999737739563,1.84657621383667,-0.2889124453067779,0.9305926561355592,-0.1168360859155654,-0.3469101190567016,0.0548503994941711,0.0316004902124404,0.0038009881973266,0.752097056210946,-0.1616112323730883,0.5481119847781781,0.3283368733805266,0.117103547858813,1.2139698046001706,0.7418759157682482,1580,1.9420531241168553,1
1761597265104414720,8.33541464805603,-0.4809990525245666,1.871801495552063,-0.2692537903785705,0.9372185468673706,-0.1125006675720214,-0.330098807811737,0.0416023135185241,0.0557685121893882,-0.0107367634773254,0.74701375616349,-0.1673268523631849,0.5540327849535174,0.3271391170386219,0.1127393419487466,1.232153046512836,0.7456794499951757,1590,1.9512812536673687,1
1761597265114460672,8.345460653305054,-0.4566234946250915,1.8955066204071045,-0.2409927695989608,0.9435860514640808,-0.1085462495684623,-0.3128306269645691,0.0366842746734619,0.0516614839434623,0.0087687075138092,0.7418084892485808,-0.1728212316566586,0.5601049113194438,0.3257842909257426,0.1087605412297344,1.2506662691384909,0.7490709251687561,1600,1.964568115095471,1
1761597265124506624,8.355506658554077,-0.4218151569366455,1.9190614223480225,-0.2039090543985366,0.949640691280365,-0.1050668358802795,-0.2952010035514831,0.0185447335243225,0.0602823048830032,0.0350996851921081,0.7364301634469677,-0.1781511303570392,0.5662699658259392,0.3244552872818499,0.10526110957956,1.2694103891742614,0.7524415799779633,1610,1.9754249344967798,1
1761597265134552832,8.3655526638031,-0.3889640569686889,1.9647983312606812,-0.1804526448249817,0.9554173350334167,-0.1020574867725372,-0.2770594656467438,0.0171320438385009,0.0640783533453941,0.0269221067428588,0.7309111796798843,-0.1832020048779557,0.5726319008511161,0.3229529044962007,0.1022354869468289,1.2885500753314345,0.755281575401414,1620,2.011041689563553,1
1761597265144598784,8.375598669052124,-0.4003578424453735,2.010514259338379,-0.1612512469291687,0.960925817489624,-0.0993256792426109,-0.2583717107772827,0.0169793963432312,0.0609956085681915,0.0384620726108551,0.7251602855760777,-0.1882273987110455,0.5791239835084476,0.3214473587642377,0.0994897284826791,1.308130646504716,0.7582005135598942,1630,2.0563209753456966,1
1761597265154643712,8.385643720626831,-0.4087991714477539,2.0799472332000732,-0.1361423432826995,0.966177225112915,-0.0968417525291442,-0.2390045523643493,0.0010163187980651,0.0694522261619567,0.040747120976448,0.719131745205069,-0.1932696485842743,0.5857854249130761,0.3199246796132861,0.0969937607053963,1.3282932260104614,0.7612228741279206,1640,2.1241073402979227,1
1761597265164689664,8.395689725875854,-0.4079821109771728,2.112351894378662,-0.1188352555036544,0.9711163640022278,-0.0946696475148201,-0.2190220355987548,-0.0115063786506652,0.0723612904548645,0.0568516254425048,0.7127331211829985,-0.1984777204628368,0.5925331842554222,0.3186259819785469,0.0948116286556745,1.3489714386217115,0.7649627040881918,1650,2.154669753468761,1
1761597265174735872,8.405735731124878,-0.4683859646320343,2.194083452224731,-0.110374130308628,0.975736141204834,-0.092598371207714,-0.1984045654535293,-0.0231300592422485,0.0607227459549903,0.0744726955890655,0.7061292030283468,-0.2036605523642243,0.5994331433600325,0.3171493776852583,0.0927312130602968,1.3701928881180614,0.7684823465661794,1660,2.24623463953169,1
1761597265184781824,8.415781736373901,-0.5322102308273315,2.2410852909088135,-0.090075246989727,0.9800155758857728,-0.0906543806195259,-0.1770627349615097,-0.0369919538497924,0.0645313411951065,0.096709981560707,0.6991005446056072,-0.2091695879852648,0.6063964984928558,0.3158952324580623,0.0907790109730707,1.3920512081647167,0.7729353152220753,1670,2.305173434049027,1
1761597265194827520,8.425827503204346,-0.5860863327980042,2.2582056522369385,-0.0648546665906906,0.983835220336914,-0.0889354348182678,-0.1554300785064697,-0.0531102418899536,0.0895915552973747,0.1081888824701309,0.6917670641055166,-0.2149024212698042,0.6132714810078589,0.3149178493605253,0.0890530962669077,1.414107504701284,0.7782983715836034,1680,2.333922896127046,1
1761597265204873472,8.43587350845337,-0.662009060382843,2.320678472518921,-0.0318059027194976,0.9871906042099,-0.0875323265790939,-0.1333890706300735,-0.0372853279113769,0.0854266062378883,0.0924039781093597,0.6840601704265933,-0.220888041947757,0.620091875820947,0.3142548407512299,0.0876444887265385,1.4364898624079907,0.7846709158440458,1690,2.4134655962514837,1
1761597265214919680,8.445919513702393,-0.7790555953979492,2.4306817054748535,-0.0038220295682549,0.9901157021522522,-0.0864414647221565,-0.1104480847716331,-0.0169407129287719,0.067963071167469,0.1085254624485969,0.675900253443426,-0.2270564471378868,0.6270736218402755,0.3136605241772985,0.0865494753554718,1.4597049158706177,0.7915332426635169,1700,2.552480319603075,1
1761597265224964608,8.4559645652771,-0.8619310259819031,2.536620616912842,0.0577683672308921,0.9925461411476136,-0.0858552455902099,-0.0864935219287872,-0.0194016098976135,0.0653474405407905,0.1355047225952148,0.6671059237158622,-0.2335812582133485,0.6341869090544484,0.3133950879445412,0.0859610685498083,1.4838728389271305,0.7995627810380598,1710,2.6796840171837473,1
1761597265235010560,8.466010570526123,-0.9056473970413208,2.6625301837921143,0.0768704190850257,0.9944143891334534,-0.0859138816595077,-0.0613098554313182,-0.0276175141334533,0.0833961740136146,0.1266937851905822,0.657676265604975,-0.240253159210826,0.6415789050744142,0.3132362040388564,0.0860199243244698,1.5092200387913275,0.8080942924018512,1720,2.8133917695020894,1
1761597265245056512,8.476056575775146,-0.9723537564277648,2.7575995922088623,0.0586621202528476,0.9956696629524232,-0.0861158072948455,-0.0350193753838539,-0.0202666521072387,0.0888929441571235,0.1472172737121582,0.647671719436083,-0.2473080707720903,0.649098629238609,0.3130993332437123,0.0862226041441147,1.5356391375171483,0.8173496978916981,1730,2.9245971659259724,1
1761597265255102720,8.48610258102417,-1.0732346773147583,2.837357521057129,0.0524503849446773,0.9962289929389954,-0.0864018350839614,-0.0079110069200396,-0.0345895886421203,0.1083897650241851,0.1713631749153137,0.6371786336754826,-0.254735019126353,0.6566236109046892,0.3129839139410852,0.0865096975992534,1.5628555410821372,0.8273439256721093,1740,3.034004188818996,1
1761597265265148672,8.496148586273193,-1.222536563873291,2.930859327316284,0.0536091290414333,0.9960097074508668,-0.0869871824979782,0.0199416913092136,-0.0466537475585937,0.126019150018692,0.1703659296035766,0.626064303646536,-0.2626947937362777,0.664049916035268,0.3131653515360985,0.0870972617999714,1.590815235309366,0.8387792554865091,1750,3.176067692169132,1
1761597265275194624,8.506194591522217,-1.3586434125900269,3.041884183883667,0.0597778111696243,0.9949356317520142,-0.0879603698849678,0.0486414805054664,-0.0404374003410339,0.1178065687417984,0.1888158321380615,0.6142983599455698,-0.2711209148590818,0.6714269796422287,0.3135550498821856,0.0880741955370372,1.6196465023175164,0.8514311098732297,1760,3.3320481235186428,1
1761597265285240576,8.51624059677124,-1.5390371084213257,3.181957244873047,0.0958657711744308,0.992884397506714,-0.089619256556034,0.0784156993031501,-0.0337016582489013,0.090809442102909,0.2250511646270752,0.6016466340045248,-0.2801591062454275,0.6787626430183717,0.3143461295177838,0.0897396530229605,1.649610407408686,0.8658377685764018,1770,3.5359125237172955,1
1761597265295285760,8.526285648345947,-1.621429204940796,3.2621421813964844,0.1329972445964813,0.989746868610382,-0.0922220274806022,0.1090708822011947,-0.0303656458854675,0.1068399399518966,0.2463673502206802,0.5882159534061393,-0.289476594620593,0.6861040322307478,0.3153833173831311,0.0923532554059143,1.680554237451198,0.881253622254301,1780,3.645311035474396,1
1761597265305331712,8.53633165359497,-1.6327446699142456,3.350623607635498,0.156126007437706,0.9854758977890016,-0.0956820771098136,0.1402933001518249,-0.0311149358749389,0.1671084761619568,0.2214467525482177,0.5741967538667045,-0.298858166466888,0.693419386892361,0.3164671092113967,0.095828680215792,1.7122070953571311,0.897038137326025,1790,3.730537367106264,1
1761597265315377664,8.546377658843994,-1.730252385139465,3.49645733833313,0.1608603000640869,0.9799476861953736,-0.0998371765017509,0.1724385172128677,-0.0196053385734558,0.1777180433273315,0.2074748277664184,0.5594707522056079,-0.3084078225133107,0.7007880368155976,0.3174479766424504,0.1000037780176982,1.7449801623302728,0.913123349810676,1800,3.9044670918322657,1
1761597265325423616,8.556423664093018,-1.901315212249756,3.6279141902923584,0.1592285931110382,0.9730170965194702,-0.1048539057374,0.2055316269397735,-0.0370125770568847,0.1697800606489181,0.2379345595836639,0.543769754027457,-0.3185173789269685,0.7080342457770178,0.3186668886331301,0.1050469968287222,1.7789674831681996,0.930680087043828,1810,4.099038259558101,1
1761597265335469824,8.566469669342041,-2.0018091201782227,3.7372848987579346,0.1358326226472854,0.96463280916214,-0.110642984509468,0.2392521053552627,-0.0622128248214721,0.1779952943325042,0.2427883148193359,0.5272706697280971,-0.3289956569992438,0.7151139145182811,0.31993679579509,0.110869987004166,1.813914377989891,0.9491425896106956,1820,4.2418143134144914,1
1761597265345515776,8.576515674591064,-2.024761915206909,3.887279748916626,0.1445411592721939,0.9546558856964112,-0.1171094849705696,0.2737107872962951,-0.0560047626495361,0.168256938457489,0.229981780052185,0.5099764265896263,-0.3397580708361092,0.7220940667614727,0.3210431429653865,0.1173788348995526,1.8500176475722792,0.9680678518672482,1830,4.385373052128337,1
1761597265355561728,8.586561679840088,-2.098630666732788,3.983761787414551,0.1632683277130127,0.9429548978805542,-0.1245569363236427,0.3087420761585235,-0.0407637357711792,0.1698755621910095,0.2052654922008514,0.4918844536523036,-0.3506014388693989,0.7290059434034301,0.3219917019965266,0.1248812757149255,1.8872152623539689,0.9871244840407228,1840,4.505692532902116,1
1761597265365607680,8.596607685089111,-2.1944761276245117,4.079768657684326,0.171479120850563,0.9295328855514526,-0.1331602185964584,0.3438559770584106,-0.0384501218795776,0.2148405313491821,0.1824501752853393,0.4729931839310439,-0.3616350721102699,0.7356276698681024,0.3230316731656531,0.133556924259848,1.925108880116244,1.0068788549653085,1850,4.635692274496326,1
1761597265375652864,8.606652736663818,-2.3075437545776367,4.278332233428955,0.1709010452032089,0.9141393899917604,-0.1428557932376861,0.3793964385986328,-0.0154881477355957,0.2231627851724624,0.1503735184669494,0.4531524187399753,-0.3728880892003373,0.7420597661727025,0.3239672151409323,0.1433462048065108,1.964193179044176,1.0270973145629347,1860,4.8639584749603895,1
1761597265385698560,8.616698503494263,-2.494356155395508,4.480036735534668,0.1951927989721298,0.8963759541511536,-0.154109925031662,0.4156443178653717,-0.0016616582870483,0.1847190707921981,0.1291097104549408,0.4319164274086834,-0.3846304569402347,0.7482523458162661,0.3250015577541145,0.1547265586321022,2.004979805806729,1.048552726511231,1870,5.131339202437329,1
1761597265395744512,8.626744508743286,-2.6712331771850586,4.685685157775879,0.1778867840766906,0.8760854601860046,-0.1669899970293045,0.4523143470287323,-0.0162833929061889,0.203504279255867,0.130098283290863,0.4092931547864633,-0.3967926893883886,0.7541304506659341,0.3260702881332257,0.1677760116188709,2.047391007535587,1.0710577817432558,1880,5.39655221346412,1
1761597265405790464,8.63679051399231,-2.8615684509277344,4.893734455108643,0.1544299274682998,0.8531463742256165,-0.181520789861679,0.4890715777873993,-0.019391119480133,0.2342704236507415,0.1392089426517486,0.3851840921693911,-0.4096063053851049,0.7594461592427099,0.3272572039707572,0.1825327101921764,2.0913192239126146,1.095212949531935,1890,5.671072166615437,1
1761597265415836672,8.646836519241333,-2.975866317749023,5.092985153198242,0.1520906835794448,0.8274040222167969,-0.1976326256990432,0.5256842970848083,-0.0291099548339843,0.2399452477693557,0.1462212800979614,0.3596710885930597,-0.4228644402059277,0.7642171271916423,0.3283208594506072,0.1989423178522906,2.1367978397296277,1.120347867617562,1900,5.900627906235278,1
1761597265425882624,8.656882524490356,-3.1409027576446533,5.2863922119140625,0.1835138648748397,0.7986735701560974,-0.2156744450330734,0.5617874264717102,-0.0305461287498474,0.2293768525123596,0.1311293840408325,0.3326739239713016,-0.4364295905377064,0.7683898236086176,0.3292937485036024,0.2173824743646276,2.1838008756820133,1.1462765736656642,1910,6.15182006318185,1
1761597265435928576,8.66692852973938,-3.2386045455932617,5.477815628051758,0.1879372000694275,0.7669186592102051,-0.235710471868515,0.596888542175293,-0.0153624415397644,0.2817310094833374,0.1071976423263549,0.3044366763134319,-0.449736752820354,0.7721276618241497,0.3299604581676773,0.2379495720710648,2.2321613566359604,1.1716004463574958,1920,6.366344622217317,1
1761597265445973760,8.676973581314087,-3.2835538387298584,5.7046051025390625,0.1750674843788147,0.7320073843002319,-0.2571200430393219,0.6309158205986023,0.0103937983512878,0.3296450674533844,0.1226701140403747,0.2749603231561811,-0.4630590828442835,0.7752639456957148,0.3300590772646793,0.2600408771932653,2.282157462240154,1.196556521783349,1930,6.584443318294951,1
1761597265456019712,8.68701958656311,-3.391456365585327,5.929842472076416,0.201923593878746,0.6936768889427185,-0.2800816297531128,0.6636015176773071,0.0321074724197387,0.3268955647945404,0.1284975409507751,0.2441107347705998,-0.4763297437359396,0.7777600796083998,0.3295592342191252,0.283879136315828,2.3340395320467455,1.220987479709652,1940,6.834162798841969,1
1761597265466065664,8.697065591812134,-3.437387228012085,6.156113624572754,0.2017619311809539,0.6518355011940002,-0.3047427237033844,0.6944369673728943,0.028645634651184,0.3637026250362396,0.1237546801567077,0.2118487365784078,-0.4894508207286476,0.779523178475399,0.3284840022631623,0.3096682794691014,2.3878279388050796,1.2447419231970842,1950,7.053656767296291,1
1761597265476111616,8.707111597061157,-3.5041351318359375,6.389646053314209,0.2481270283460617,0.6064198017120361,-0.3307875394821167,0.7230734825134277,0.0374096035957336,0.3800734579563141,0.1242017149925232,0.1782646983004583,-0.5023177533512171,0.7805213721462558,0.3266269135710926,0.3371379595719428,2.44371330508636,1.267356595803441,1960,7.291646366287695,1
1761597265486157568,8.71715760231018,-3.603511095046997,6.559335708618164,0.2755341529846191,0.5574930906295776,-0.3583762347698211,0.7488442063331604,0.05519300699234,0.3633506298065185,0.1198537945747375,0.1433868615706494,-0.5147305359602828,0.7806885335551111,0.3240648422222894,0.3665280025298918,2.50163925651264,1.2884889035126348,1970,7.489065109874604,1
1761597265496203776,8.727203607559204,-3.905220508575439,6.751536846160889,0.3840022981166839,0.5054178237915039,-0.388618916273117,0.770408034324646,0.0658866167068481,0.3468860387802124,0.1524131894111633,0.1069923506696617,-0.5265943924383438,0.7796809436726054,0.3214789687877729,0.3991322094100357,2.5609837005901968,1.3087455708796936,1980,7.809062349003574,1
1761597265506249728,8.737249612808228,-4.318511009216309,6.958415985107422,0.4222013652324676,0.4501240849494934,-0.422703742980957,0.7865812182426453,0.0733744502067565,0.310307502746582,0.177545428276062,0.0685466709829524,-0.5378661005973969,0.7771683698551505,0.3193912749684969,0.4364266208103528,2.621824676714071,1.3285734295577412,1990,8.200447814072419,1
1761597265516294656,8.747294664382935,-4.782514572143555,7.123322010040283,0.4861201345920563,0.39206662774086,-0.4607574343681335,0.7962328791618347,0.0915912687778472,0.2610045671463012,0.2780470848083496,0.0279951433773482,-0.5484852593709943,0.7728391497123288,0.317962197645542,0.4788484177715427,2.684041910245289,1.34797438127458,2000,8.593629901080543,1
1761597265526340608,8.757340669631958,-5.0345869064331055,7.292932033538818,0.6319040060043335,0.3315659761428833,-0.5022314190864563,0.7986410856246948,0.0638960599899292,0.2816351056098938,0.3607369661331177,-0.0144602516044036,-0.558003929876309,0.7667803791811064,0.3169705755787658,0.5261772858246182,2.7480837087420475,1.365452308445985,2010,8.884437271828117,1
1761597265536386816,8.767386674880981,-5.04770565032959,7.336414813995361,0.7056595087051392,0.2693820595741272,-0.5446548461914062,0.7942196130752563,0.0666317641735076,0.3031997084617615,0.4288640022277832,-0.0578575892626569,-0.566154158705131,0.7593281754759293,0.315504044021022,0.5759775101841706,2.8145908881568933,1.3790173521140126,2020,8.933099685865251,1
1761597265546432768,8.777432680130005,-4.9551682472229,7.3294997215271,0.7643630504608154,0.2069017738103866,-0.5860286951065063,0.783429741859436,0.0702436119318008,0.2906032800674438,0.4751609563827514,-0.1011914722950922,-0.5729622569886339,0.7506191540154046,0.3131221022131891,0.6261490006234662,2.8833904559151153,1.3879460204023115,2030,8.880287686728492,1
1761597265556478720,8.787478685379028,-4.6400370597839355,7.331294059753418,0.7764840722084045,0.1448613107204437,-0.6246888041496277,0.76731938123703,0.08753003180027,0.2958619594573974,0.5609276294708252,-0.1438291088217792,-0.5786945636793938,0.740791670097535,0.3092789764753261,0.6747329744726803,2.9549999580802435,1.3919433047817464,2040,8.710955402315951,1
1761597265566524672,8.797524690628052,-4.68699312210083,7.102677822113037,0.8132215738296509,0.0846671536564827,-0.6608912944793701,0.745690643787384,0.0847206860780716,0.2838616967201233,0.689261257648468,-0.1853269982328798,-0.5830470506748043,0.7300009933361,0.3046451739728062,0.7220057496691319,3.028534900368145,1.3906114815565525,2050,8.54852420593747,1
1761597265576570624,8.807570695877075,-5.009775638580322,6.819150447845459,0.7177550792694092,0.0282627306878566,-0.6968591809272766,0.7166513800621033,0.0990413725376129,0.25320965051651,0.7907341718673706,-0.22598090868591,-0.585794262165391,0.7177539683401327,0.3010102186057452,0.7710089179534738,3.102175870079544,1.3850190756404313,2060,8.491986642304663,1
1761597265586615552,8.817615509033203,-5.626887321472168,6.630771160125732,0.6207922697067261,-0.0236286949366331,-0.7340106964111328,0.6787270307540894,0.1552967876195907,0.137422502040863,0.8935844302177429,-0.2665468624654503,-0.5869640829890603,0.7034462842935256,0.2993148256495914,0.8242087928685187,-3.1067934541674864,1.375536107474921,2070,8.718622032673913,1
1761597265596661504,8.827661514282227,-6.081723690032959,6.664034843444824,0.5181531310081482,-0.0716532692313194,-0.7724477648735046,0.6310229897499084,0.1249522268772125,-0.0522592067718505,0.9646646976470948,-0.3079098994178618,-0.5864503244069269,0.6867222957823673,0.2994660414945715,0.8826863957308082,-3.0285259790771883,1.3601460551651663,2080,9.036880330275949,1
1761597265606707456,8.83770751953125,-6.3201704025268555,6.688514709472656,0.4177524447441101,-0.1159198582172393,-0.8096675872802734,0.5753270983695984,0.0379474386572837,-0.2425786256790161,1.0349786281585691,-0.349806567604441,-0.5850535970351927,0.6673648466957854,0.2999531612874189,0.9435854699217906,-2.9427694840028993,1.3378495519888245,2090,9.21169365756907,1
1761597265616753664,8.847753524780273,-6.098398685455322,6.771576881408691,0.375946968793869,-0.1560512632131576,-0.8433100581169128,0.5142726898193359,-0.0889438241720199,-0.3134130835533142,1.0918521881103516,-0.3909148885024443,-0.5822900012144814,0.6465869530386054,0.3000821509950593,1.0034128829831448,-2.8469822447889928,1.3038275168009348,2100,9.120639018782464,1
1761597265626799616,8.857799530029297,-5.61305570602417,6.7750091552734375,0.2099606543779373,-0.1916089951992035,-0.8712202310562134,0.4519530832767486,-0.1795000433921814,-0.2534594535827636,1.2494325637817385,-0.4301090163782018,-0.5794167321512435,0.6247021656037361,0.2983785750219367,1.057682552485779,-2.74060517951822,1.2592088625504465,2110,8.80063786832274,1
1761597265636845568,8.86784553527832,-5.209146976470947,6.771970748901367,-0.1297041475772857,-0.2207197546958923,-0.8939607739448547,0.3900222182273865,-0.1646257191896438,-0.3095763325691223,1.2604753971099854,-0.4668784068135974,-0.5775009577308974,0.6012518215086345,0.2949806671596048,1.1061068786508392,-2.626612162201905,1.2082010011280389,2120,8.544683915297915,1
1761597265646891520,8.877891540527344,-4.959158420562744,6.851917266845703,-0.541561484336853,-0.2421954572200775,-0.9130621552467346,0.3281146883964538,-0.106437399983406,-0.4427577257156372,1.2360180616378784,-0.501363715536798,-0.5764977911170077,0.5759406567698899,0.2908216212639399,1.1507306065255438,-2.5057235264757547,1.1511910659403444,2130,8.475571444643352,1
1761597265656936704,8.88793659210205,-4.943135738372803,7.0102667808532715,-0.8702855706214905,-0.256312221288681,-0.9295514822006226,0.2650253474712372,-0.1314288675785064,-0.590620756149292,1.2336013317108154,-0.5343300587819312,-0.5759381544287928,0.5484595834040612,0.2863195027698109,1.193194474148099,-2.3729059322914736,1.0835103500448704,2140,8.621822791100806,1
1761597265666982656,8.897982597351074,-4.801641464233398,7.228355884552002,-1.2484052181243896,-0.2630526125431061,-0.9437559843063354,0.2003197520971298,-0.2477048635482788,-0.6941529512405396,1.276242733001709,-0.5661613945081634,-0.5755315595028833,0.5185781556616261,0.2816051015690915,1.2338118299097156,-2.2216293916285617,0.9990043843548134,2150,8.767177717682197,1
1761597265677028608,8.908028602600098,-4.943655014038086,7.438205242156982,-1.5612200498580933,-0.2617460489273071,-0.9556925892829896,0.1346863210201263,-0.3917878866195678,-0.7560229897499084,1.3040496110916138,-0.5967807297319654,-0.5754435664109577,0.4860122010133147,0.2766034902403076,1.2720037314802244,-2.0460308480413714,0.8924771767375658,2160,9.066643820419683,1
1761597265687074560,8.918074607849121,-5.079531192779541,7.654930591583252,-1.9932571649551392,-0.252455323934555,-0.965315878391266,0.0665706694126129,-0.5510877370834351,-0.7726601958274841,1.276736855506897,-0.6267160952565706,-0.5745810167206225,0.4507127596961922,0.2719221096826961,1.3066505256954646,-1.8286203244036456,0.7455100444589169,2170,9.40067410487261,1
1761597265697120768,8.928120613098145,-5.034111022949219,7.962862491607666,-2.469822406768799,-0.2332474291324615,-0.972415804862976,-0.0018345582066103,-0.6585982441902161,-0.7706263065338135,1.3147464990615845,-0.6553413764572467,-0.573866195801027,0.4120197935044708,0.2672921072823306,1.3353735037071646,-1.5629312011455756,0.5531920541018928,2180,9.739069543473253,1
1761597265707166720,8.938166618347168,-4.8308916091918945,8.236289978027344,-2.86397385597229,-0.2042700350284576,-0.9765406250953674,-0.0681350827217102,-0.8323663473129272,-0.8714514374732971,1.4541823863983154,-0.6820564941131586,-0.5733827796895357,0.3703574576724555,0.2624245062724091,1.353763339465477,-1.248847200697895,0.3151102711168285,2190,9.968767857142984,1
1761597265717212672,8.948212623596191,-4.418039798736572,8.378297805786133,-3.5250513553619385,-0.1647889614105224,-0.9778372645378112,-0.1291457861661911,-0.971609354019165,-0.9195625185966492,1.470149278640747,-0.7058795308760407,-0.5737098891166553,0.3260123769404943,0.2575011987377878,1.359869509769626,-0.9060711810717504,0.0503800436241144,2200,10.106479943264127,1
1761597265727257856,8.958257675170898,-4.041495323181152,8.447372436523438,-4.20815896987915,-0.1136068031191825,-0.9766780138015748,-0.182191252708435,-1.0663706064224243,-0.9728306531906128,1.48141610622406,-0.7258218401838211,-0.5752802160628053,0.2792078872593447,0.2535317157828068,1.354402144136574,-0.5575616539772612,-0.219695517200949,2210,10.26646908359468,1
1761597265737303808,8.968303680419922,-3.5274534225463867,8.507672309875488,-5.018143653869629,-0.0510593242943286,-0.9726021885871888,-0.2267991602420807,-1.2455867528915403,-1.0070730447769165,1.5021440982818604,-0.7419319493479587,-0.5777598804422233,0.2297693175366721,0.2508715813625873,1.3361740096881107,-0.2214383012947519,-0.4771113288629547,2220,10.488335497653019,1
1761597265747349760,8.978349685668945,-2.6906380653381348,8.489911079406738,-5.920745372772217,0.0230281222611665,-0.9657912850379944,-0.2582961022853851,-1.4489619731903076,-1.0318588018417358,1.5226393938064575,-0.7528220086749507,-0.5823920879906952,0.1779646162186124,0.2498140749077325,1.3084776530549973,0.0889188738294953,-0.7090178885480098,2230,10.694547634382833,1
1761597265757395712,8.988395690917969,-1.8705819845199585,8.237178802490234,-6.848781585693359,0.1070823445916175,-0.9554590582847596,-0.2750115096569061,-1.6937522888183594,-1.1384587287902832,1.5557427406311035,-0.7579175361670824,-0.5890542105199313,0.1245366989168029,0.2511309131190446,1.2712113739019342,0.3713126710573046,-0.915285537244708,2240,10.874557498746215,1
1761597265767441664,8.998441696166992,-0.877621054649353,7.956435203552246,-8.087989807128906,0.2006523013114929,-0.9400851726531982,-0.2756422162055969,-1.8980705738067627,-1.0996639728546145,1.5704267024993896,-0.7565064786660414,-0.5977701351959764,0.0696402161185468,0.2559669939940718,1.222879981080082,0.6292356830010869,-1.1011366533664169,2250,11.37939624866409,1
1761597265777487872,9.008487701416016,0.1009757071733474,7.461935520172119,-9.38520050048828,0.3030675649642944,-0.9168694019317628,-0.2598086297512054,-2.107785701751709,-0.98948734998703,1.674100041389465,-0.7478840755725538,-0.6082067418975016,0.0134254130820407,0.265657098337534,1.1601659997672775,0.8621007628379143,-1.2680317854021004,2260,11.99052401836596,1
1761597265787533824,9.01853370666504,0.999177634716034,6.588974952697754,-10.603537559509276,0.4108971059322357,-0.8823257088661194,-0.2294885516166687,-2.335533857345581,-0.912519872188568,1.750072717666626,-0.7319073254932447,-0.6192104065083059,-0.0428274987088631,0.2811690402106899,1.0807811834885763,1.061445962450348,-1.4106597451819478,2270,12.523895386377156,1
1761597265797578496,9.028578519821169,2.1374082565307617,5.634052276611328,-11.803815841674805,0.5203380584716797,-0.8330562114715576,-0.1877918839454651,-2.5105419158935547,-0.7892429828643799,1.8530292510986328,-0.7085439503613193,-0.6297099295387383,-0.0978236399938141,0.3030866812657994,0.9846096870467383,1.2244410591129102,-1.528831339557034,2280,13.252966744651864,1
1761597265807624704,9.03862452507019,3.4399633407592773,4.185238838195801,-13.025036811828612,0.628243625164032,-0.7659511566162109,-0.1364880800247192,-2.705986976623535,-0.5797215700149536,1.9989606142044067,-0.6766728689540085,-0.6396915491303242,-0.1501688388448257,0.3322017171543799,0.872519483632259,1.3568672961328123,-1.6316934715740503,2290,14.106776948261452,1
1761597265817670656,9.048670530319214,4.3064069747924805,2.014812707901001,-14.150964736938477,0.7304819226264954,-0.6773985624313354,-0.0867612287402153,-2.9466073513031006,-0.2332459688186645,2.2369840145111084,-0.6373650287956428,-0.6462059631923305,-0.1975784408579076,0.3703329852782866,0.7442204095965635,1.4525775712441498,-1.7201477080358487,2300,14.928309156315626,1
1761597265827716608,9.058716535568236,5.785233497619629,-0.0899327099323272,-15.246390342712402,0.8232389688491821,-0.5656269788742065,-0.0484105870127677,-3.0797698497772217,0.1826924681663513,2.230783700942993,-0.5910736662752002,-0.6472202773112562,-0.2385385079510686,0.4181353063822197,0.6011933437134509,1.5120589469168269,-1.8001216738447252,2310,16.307342916510034,1
1761597265837762560,9.06876254081726,7.432122707366943,-2.606710195541382,-15.716729164123535,0.9008685350418092,-0.4332779347896576,-0.0265737883746624,-3.2497148513793945,0.2766006886959076,1.903236985206604,-0.5364442083222075,-0.6431463567559673,-0.2703254886628287,0.4748836924043379,0.4481266773838404,1.5413069131250825,-1.8847208027649365,2320,17.57973155652014,1
1761597265847808512,9.078808546066284,8.568957328796387,-5.595183372497559,-15.490869522094728,0.9565361142158508,-0.2894237339496612,-0.035671841353178,-3.7951135635375977,0.5672252178192139,1.6807676553726196,-0.4766269004825398,-0.631132200937779,-0.2895448580771854,0.539131394943652,0.2936247390673891,1.533520873222655,-1.976735267181108,2330,18.566102047149528,1
1761597265857854720,9.088854551315308,8.882676124572754,-8.046825408935547,-14.674095153808594,0.985632300376892,-0.1466889232397079,-0.0837327241897583,-4.407400608062744,1.2497162818908691,1.4412003755569458,-0.4157887620818947,-0.6087352626453234,-0.2959307633340691,0.6074421561964582,0.1472201472869272,1.4860465065720465,-2.076391681760339,2340,18.946830945542697,1
1761597265867899648,9.098899602890016,8.305027961730957,-9.612919807434082,-13.055095672607422,0.98612242937088,-0.0195401031523942,-0.1648654490709304,-4.9241108894348145,1.5442593097686768,1.2738285064697266,-0.3589415027093794,-0.5761704049719718,-0.2925661339006813,0.6734936016946429,0.0195413471118825,1.4051428081291717,-2.17881345474886,2350,18.215851330372253,1
1761597265877945600,9.108945608139038,8.257196426391602,-10.313103675842283,-11.06541919708252,0.960732638835907,0.0809028446674346,-0.2654196918010711,-5.460122108459473,1.6924431324005127,1.1228415966033936,-0.307691930562417,-0.5372232636864975,-0.2805018984487387,0.7335090716611286,-0.0809913641036022,1.301251628235226,-2.285557789247644,2360,17.233249904177917,1
1761597265887991552,9.118991613388062,8.590516090393066,-10.384242057800291,-8.697123527526855,0.9160244464874268,0.1473992466926574,-0.373058408498764,-5.736505031585693,1.6501318216323853,0.6802331209182739,-0.2620720327280483,-0.4962614853527015,-0.2592206242580259,0.7860326756256623,-0.1479382820828961,1.1840486313458982,-2.3983647697677286,2370,16.039619929018013,1
1761597265898037760,9.129037618637083,8.816637992858887,-10.19803237915039,-6.029878616333008,0.8598757386207581,0.1758074313402176,-0.4792759716510772,-5.760159492492676,1.9820141792297363,-0.1427485942840576,-0.2240138207689928,-0.456034861458127,-0.2288978477262038,0.8303347136428357,-0.1767259175528293,1.062306140121096,-2.5105674601057344,2380,14.767951991763537,1
1761597265908083712,9.139083623886108,8.791264533996582,-9.838294982910156,-3.6134514808654785,0.7981362342834473,0.1689932197332382,-0.5782904028892517,-5.338510990142822,2.467618703842163,-1.1189751625061035,-0.1948153912168134,-0.4174345517598735,-0.1913196351366308,0.8667133546589149,-0.1698081023431842,0.9437825130520112,-2.6125768489451766,2390,13.679744583947107,1
1761597265918129664,9.149129629135132,9.021389961242676,-9.098956108093262,-1.8177295923233032,0.7349210381507874,0.1339870393276214,-0.6647844910621643,-4.315136432647705,2.6370396614074707,-1.501810908317566,-0.1732265261531458,-0.38149222178225,-0.1485645664736682,0.8957592812040915,-0.134391208591528,0.8354643532055183,-2.699815970585179,2400,12.941430367645829,1
1761597265928175616,9.159175634384155,9.49843692779541,-9.428182601928713,-0.7320208549499512,0.6691280603408813,0.0778858140110969,-0.7390544414520264,-3.134673595428467,2.613215208053589,-1.4639942646026611,-0.1564273600287745,-0.3466976077837292,-0.1013585546523509,0.91927020519218,-0.0779647765352616,0.7357817466262198,-2.774428551802982,2410,13.403237884134581,1
1761597265938220800,9.169220685958862,10.10731315612793,-9.732237815856934,0.1748615205287933,0.5941395163536072,0.0033514588139951,-0.8043550252914429,-2.342064380645752,2.9001214504241943,-1.8589903116226196,-0.1426944157781373,-0.3089462756407194,-0.0487307547045777,0.939050462498354,-0.0033514651418046,0.6361995874310135,-2.8388842200364346,2420,14.032277387929376,1
1761597265948266752,9.179266691207886,12.603955268859863,-10.286735534667969,1.078108787536621,0.510452926158905,-0.0926080495119094,-0.8549044132232666,-1.5558478832244873,2.893129825592041,-0.3824002742767334,-0.1304750131283917,-0.269091351715204,0.0117320813876487,0.9541637515803988,0.0927409340046561,0.5382753820108029,-2.895390483069048,2430,16.304567916304457,1
1761597265958312704,9.18931269645691,15.342604637145996,-10.972126007080078,2.523751974105835,0.4143020212650299,-0.2249029874801635,-0.8819140791893005,-0.7746230959892273,2.82754898071289,1.6876850128173828,-0.1187738062186441,-0.2261387779328552,0.0889056091088368,0.962730388987498,0.2268434744665952,0.4391773610850448,-2.9469254726284873,2440,19.030301894447707,1
1761597265968358656,9.199358701705933,15.772878646850586,-9.849803924560549,3.5196781158447266,0.3114682734012604,-0.3749659955501556,-0.8731483221054077,-0.993200421333313,2.9899866580963135,2.1284432411193848,-0.1105846068688604,-0.1820037522712198,0.174070303721777,0.9614287216822018,0.3843601047320898,0.34264765482646,-2.9798644533923095,2450,18.925920643385354,1
1761597265978404864,9.209404706954956,13.901628494262695,-6.788031578063965,4.6413469314575195,0.2216333001852035,-0.5130154490470886,-0.8292731046676636,-1.6963647603988647,2.4979703426361084,2.059741973876953,-0.1088730871039378,-0.145652517797287,0.2532761294306562,0.9501490852999956,0.5386940675208511,0.2611582530890759,-2.9858922239969585,2460,16.151617530001143,1
1761597265988450816,9.21945071220398,13.293221473693848,-5.224039554595947,6.433725833892822,0.1425950974225998,-0.6310291290283203,-0.7625411152839661,-2.6860673427581787,1.1393299102783203,1.3128340244293213,-0.1174257912663068,-0.1173931754327062,0.3239572408932226,0.9313870582583642,0.6828791151875162,0.184864776976865,-2.956620544007632,2470,15.66502966873533,1
1761597265998496768,9.229496717453005,12.827508926391602,-4.1525492668151855,8.676607131958008,0.0557065643370151,-0.7340747117996216,-0.6767799854278564,-2.9808621406555176,1.0622912645339966,0.3557503223419189,-0.1372742461592824,-0.0901728313162566,0.3917637758707982,0.9052877442472508,0.8243030811446806,0.0821260467235151,-2.8765346351297816,2480,16.033470054617876,1
1761597266008541696,9.23954153060913,12.020105361938477,-2.554440498352051,9.745424270629885,-0.0381088443100452,-0.8134163022041321,-0.5804322957992554,-2.7265396118164062,1.5444800853729248,-0.4606443643569946,-0.168455945670453,-0.0656542624580143,0.453291693153122,0.8728337910482135,0.9500013940954436,-0.0655618673307419,-2.726557646477717,2490,15.683793972961555,1
1761597266018587648,9.249587535858154,10.741180419921877,-1.358126163482666,10.020956993103027,-0.1321555525064468,-0.8662248849868774,-0.4818603694438934,-2.7741706371307373,1.630064606666565,-0.3945586681365967,-0.2036557036702189,-0.0444613002981161,0.5070433941037306,0.8363340536611872,1.047596699898035,-0.2676791355341276,-2.5086372680476896,2500,14.752526649590223,1
1761597266028633600,9.259633541107178,8.051681518554688,0.1485829502344131,10.030767440795898,-0.22398042678833,-0.8899147510528564,-0.3973469734191894,-3.32576322555542,1.2430946826934814,-0.6104655265808105,-0.2418366451038485,-0.0257654368402086,0.5483271473533553,0.8001178601626141,1.0971582164567533,-0.5132928112117319,-2.236486054387658,2510,12.863434518847079,1
1761597266038679552,9.2696795463562,4.649537086486816,1.401005506515503,9.70672607421875,-0.3089432716369629,-0.887356162071228,-0.3422764837741852,-3.7504897117614746,0.7306636571884155,-0.6634760499000549,-0.2821949390084402,-0.0095369668012587,0.5733853927845884,0.7690932054307023,1.0915792464710397,-0.734257007611915,-1.9793729261327644,2520,10.853641906190807,1
1761597266048725504,9.279725551605225,1.5076273679733276,2.6629061698913574,10.216609954833984,-0.389772891998291,-0.8624458909034729,-0.3228995203971863,-4.070523738861084,0.1490365266799926,-0.4894936382770538,-0.3258056724448968,0.0071532839566178,0.5818067273765999,0.7451848106629113,1.0400823488708102,-0.8789588682057857,-1.791295185448783,2530,10.665042359012013,1
1761597266058771712,9.289771556854248,0.047015406191349,3.2454495429992676,9.927839279174805,-0.4657352864742279,-0.8208680748939514,-0.3305543065071106,-3.956429481506348,-0.6815427541732788,-0.5737272500991821,-0.3722335715306067,0.0243918871467584,0.5780379593359786,0.7257542459686543,0.9629292733208832,-0.953558554650847,-1.6665944857194444,2540,10.444957919383858,1
1761597266068817664,9.299817562103271,0.0555529706180095,3.0065345764160156,9.200276374816896,-0.5315381288528442,-0.7730897068977356,-0.3461206257343292,-3.3900318145751953,-0.951931655406952,-0.6027624607086182,-0.4155927684209998,0.0406297844457556,0.5703410472073145,0.707349237207734,0.8836978923596405,-0.9936004493035993,-1.5770827729671275,2550,9.67922629473779,1
1761597266078862592,9.30986261367798,0.1596612334251403,2.976079225540161,8.913543701171875,-0.5888767242431641,-0.722655713558197,-0.3619296252727508,-3.029943466186523,-0.2035070657730102,-0.5929501056671143,-0.4558422052504122,0.055551281345894,0.5620936227314385,0.6878755600564894,0.8076367467196901,-1.019703258991622,-1.5020472065778154,2560,9.398606310451108,1
1761597266088908800,9.319908618927002,0.1181201785802841,2.849036455154419,8.419097900390625,-0.6387956142425537,-0.6695564389228821,-0.3789911866188049,-2.869245767593384,-0.1909782290458679,-0.5904149413108826,-0.4936023678941837,0.0696473382294837,0.5528595274244104,0.6677217249535647,0.7336114662581991,-1.0353251128558212,-1.4376636998474652,2570,8.88887903819984,1
1761597266098954752,9.329954624176024,0.0640921667218208,2.866196632385254,7.983921051025391,-0.6806748509407043,-0.6155790686607361,-0.3971704244613647,-2.950382947921753,-0.1568361520767212,-0.5594488978385925,-0.5285223617452638,0.0825855329675854,0.5427655259832075,0.6474947778628732,0.663120565833337,-1.0426011965841355,-1.3820557071206303,2580,8.483052887394846,1
1761597266109000704,9.340000629425049,-0.1178880259394645,3.178668737411499,7.7602338790893555,-0.7147146463394165,-0.5604425072669983,-0.4184342920780182,-2.895331859588623,-0.0701727271080017,-0.7503736615180969,-0.5617528368671056,0.0941836488560469,0.5309541309532299,0.6274161173310546,0.5949199927059067,-1.0411392589580994,-1.3331659892919558,2590,8.386838640812362,1
1761597266119046656,9.350046634674072,-0.6611769199371338,3.5604000091552734,7.55708646774292,-0.741195023059845,-0.5024820566177368,-0.4451310336589813,-2.7363438606262207,-0.3411458134651184,-1.0749037265777588,-0.5943624502655489,0.1050198480054997,0.5161446701164107,0.6076995488452921,0.5264671883553592,-1.0299662316899445,-1.290302241977788,2600,8.379925955853881,1
1761597266129092608,9.360092639923096,-1.2395408153533936,4.0596604347229,7.095860004425049,-0.7583220601081848,-0.4430491328239441,-0.478179007768631,-2.71415114402771,-0.5569813847541809,-1.4382638931274414,-0.6254112838580539,0.1151591560045567,0.4976433094460712,0.5898731150860189,0.458997004379695,-1.008197991926782,-1.255999864991066,2610,8.268526681373203,1
1761597266139137792,9.370137691497805,-1.911412477493286,4.742188930511475,6.958235740661621,-0.7653931975364685,-0.3811618685722351,-0.5185449719429016,-2.791842460632324,-0.6986568570137024,-1.730737805366516,-0.6558058834879129,0.1245781530011415,0.4745606258516056,0.5737518062747108,0.391052705518004,-0.9753391344839388,-1.22819445323793,2620,8.634749454060804,1
1761597266149183744,9.380183696746826,-2.114893913269043,4.951588153839111,6.501699924468994,-0.7625757455825806,-0.3181866705417633,-0.5632365942001343,-2.691709041595459,-1.3257951736450195,-1.9649310111999512,-0.6849808959570902,0.13324024141549,0.4479160053953427,0.5589448901198902,0.3238161488415825,-0.9346327949120043,-1.2043761176871888,2630,8.441747651846885,1
1761597266159229696,9.39022970199585,-1.9566658735275269,4.961556434631348,6.008616924285889,-0.7515032291412354,-0.2586256265640259,-0.6069231033325195,-2.6050641536712646,-1.2906450033187866,-1.910487174987793,-0.7117086465739494,0.1402925393011538,0.4205430378019463,0.5449150235248601,0.261599136624655,-0.8914310725818145,-1.181336057395218,2640,8.034243022057137,1
1761597266169275648,9.400275707244871,-1.829798698425293,4.924624443054199,5.668471813201904,-0.7338316440582275,-0.2030429542064666,-0.6482782363891602,-2.411325216293335,-1.120229721069336,-1.6803655624389648,-0.7362463551860142,0.1457626989090537,0.3932100011037268,0.5311124695778284,0.2044646167569929,-0.8472198410785075,-1.1574093399887018,2650,7.728626131399439,1
1761597266179321856,9.410321712493896,-1.5025359392166138,4.95961856842041,5.332942485809326,-0.7103971838951111,-0.1518624275922775,-0.6872217059135437,-2.151052951812744,-1.180687665939331,-1.4416539669036863,-0.758924939844286,0.1495161108328394,0.3661066541038346,0.5173430075271438,0.1524522799334442,-0.8019787531586156,-1.1319108988308035,2660,7.436108266412494,1
1761597266189367808,9.42036771774292,-0.9599691033363342,4.8653035163879395,5.126179218292236,-0.6821879148483276,-0.1066344380378723,-0.7233594059944153,-1.94328510761261,-1.1256349086761477,-1.246199369430542,-0.7800971242868462,0.1508890908643633,0.3399305662509214,0.5031185229811453,0.1068375665078677,-0.7561144045511006,-1.103158868787609,2670,7.132351110537703,1
1761597266199413760,9.430413722991943,-0.547571063041687,4.831490993499756,5.114664077758789,-0.6500219106674194,-0.0663748532533645,-0.7570111751556396,-1.816027283668518,-1.076737403869629,-1.1600725650787354,-0.8004103975907697,0.1501908171735791,0.3145427104210873,0.4876975841083232,0.0664236905260381,-0.7095052760101828,-1.0698604978324069,2680,7.057118953061938,1
1761597266209458688,9.440458536148071,-0.220897302031517,4.790839195251465,4.896416664123535,-0.6149683594703674,-0.031369999051094,-0.7879275679588318,-1.7847051620483398,-1.1646291017532349,-1.151357650756836,-0.8195657760303418,0.1477822813447612,0.2901665163980264,0.4714613576520753,0.0313751467061583,-0.6627298982493499,-1.0332602015164445,2690,6.853891738385511,1
1761597266219504640,9.450504541397097,0.0144461449235677,4.782581806182861,4.586235523223877,-0.5771771669387817,-0.0022494052536785,-0.816615879535675,-1.8473223447799685,-1.1312192678451538,-1.1593056917190552,-0.8372124323305083,0.1436514890834059,0.2665638703430469,0.4553937298565579,0.0022494070511411,-0.6152694627219764,-0.9956436147353376,2700,6.626224694229367,1
1761597266229550592,9.460550546646118,0.0769460052251815,4.910599231719971,4.334784507751465,-0.5362750291824341,0.0222882479429245,-0.843748927116394,-1.8644360303878784,-1.092539668083191,-1.1325236558914185,-0.8534835815794292,0.1382434779065897,0.2429285157175179,0.4398183309616659,-0.0222900944091101,-0.5661755351936186,-0.9581432594997747,2710,6.550592509913206,1
1761597266239596544,9.470596551895142,0.0728081539273262,5.052956581115723,4.062017917633057,-0.4919741749763489,0.0433695279061794,-0.8695288896560669,-1.8318936824798584,-1.1906321048736572,-1.091164469718933,-0.8684395016458546,0.1319718646730417,0.2186755172899276,0.4249438471042675,-0.0433831368680365,-0.5148881610476302,-0.9215563871614142,2720,6.483645641233872,1
1761597266249642496,9.480642557144163,0.1393293887376785,5.161031723022461,3.800225734710694,-0.4446896016597748,0.0609817318618297,-0.893606424331665,-1.8057986497879028,-1.2088088989257812,-1.0073487758636477,-0.8820303173784639,0.1248958795933943,0.1939015694271335,0.4108841708561013,-0.0610195930527819,-0.4617536260065222,-0.8862427225259409,2730,6.41072357533591,1
1761597266259688704,9.490688562393188,0.3096045255661011,5.242069244384766,3.6040093898773193,-0.394767552614212,0.0746184960007667,-0.915745973587036,-1.7464220523834229,-1.1487456560134888,-0.8881022930145264,-0.894412407364049,0.116720487433887,0.1688293365684187,0.3973657950677938,-0.0746879162432792,-0.4070163479037236,-0.8515869411206838,2740,6.36898960648387,1
1761597266269734656,9.500734567642212,0.6296853423118591,5.20633602142334,3.5104997158050537,-0.3432190120220184,0.0834424048662185,-0.935541570186615,-1.667507886886597,-1.0703351497650146,-0.7768301963806152,-0.9057547811983748,0.1071225291208228,0.1440623618785694,0.3838999975193907,-0.0835395395987173,-0.3516210760128743,-0.8166333748477043,2750,6.310788116626954,1
1761597266279779584,9.51077961921692,0.944447696208954,5.063419342041016,3.3930931091308594,-0.2915151715278625,0.0870241448283195,-0.9525994658470154,-1.6021311283111572,-0.9573091864585876,-0.6726751923561096,-0.9161168960824896,0.0960954558519572,0.120274430244721,0.3701750856107974,-0.0871343643987655,-0.2969711904799229,-0.781061852369034,2760,6.167923291632346,1
1761597266289825792,9.520825624465942,1.2877658605575562,4.91275691986084,3.224025011062622,-0.2405112087726593,0.0850590392947197,-0.9669122695922852,-1.535978078842163,-0.8306339979171753,-0.6185522079467773,-0.9253909268159292,0.0836134651047473,0.0977376982765825,0.3565218160385014,-0.0851619435456185,-0.2437938431441958,-0.7459202044772202,2770,6.015634524903874,1
1761597266299871744,9.530871629714966,1.5952092409133911,4.681336879730225,3.0062198638916016,-0.1909981071949005,0.0776193737983703,-0.978516697883606,-1.4889793395996094,-0.7683389782905579,-0.5263507962226868,-0.9335233004553314,0.0697551929690813,0.0766541321716465,0.3432093115424779,-0.0776975239075589,-0.1927677116949172,-0.7121374578813935,2780,5.787656293688684,1
1761597266309917696,9.54091763496399,1.7032251358032229,4.5123610496521,2.788043260574341,-0.1435435861349105,0.0661312341690063,-0.9874319434165956,-1.4529682397842407,-0.7204586267471313,-0.4401803016662597,-0.9404957711107298,0.0551602254281997,0.0569329749943969,0.3304296207715644,-0.0661795323322003,-0.1443593820671131,-0.6805151838667098,2790,5.570957128580627,1
1761597266319963648,9.550963640213013,1.704256892204285,4.365893363952637,2.5455470085144043,-0.0977670177817344,0.0523186661303043,-0.9938331842422484,-1.4003256559371948,-0.6771966218948364,-0.3843253850936889,-0.9463035002137546,0.0404475569655018,0.0380448500943917,0.3184749685325981,-0.0523425621844322,-0.0980581691047339,-0.6518478873708016,2800,5.3334159778314785,1
1761597266330009600,9.561009645462036,1.64078950881958,4.283982276916504,2.303393840789795,-0.053440798074007,0.0375374630093574,-0.9978652596473694,-1.352595567703247,-0.6309670209884644,-0.3385452628135681,-0.9510258326599774,0.0260907132419241,0.019663647166602,0.307379962919375,-0.0375462833211865,-0.0535040121094032,-0.626226793912426,2810,5.133256037543371,1
1761597266340054784,9.571054697036743,1.75072979927063,4.138668060302734,1.981417894363403,-0.0104109523817896,0.02125870808959,-0.9997197985649108,-1.288981795310974,-0.5209687948226929,-0.2419489026069641,-0.9546754187512286,0.0116974006827097,0.0018084833787358,0.2974132316063055,-0.021260309594682,-0.0104134942605425,-0.6041185916770251,2820,4.911175522777381,1
1761597266350100736,9.581100702285768,1.8426644802093504,3.871257066726685,1.7190313339233398,0.030024979263544,0.0029403106309473,-0.9995447993278505,-1.218211650848389,-0.379801869392395,-0.1703159809112548,-0.9572894764141846,-0.0029279689503043,-0.014799155472761,0.2887373663500762,-0.002940314860756,0.0300296226048255,-0.5858400386738893,2830,4.6192112303202535,1
1761597266360146688,9.59114670753479,1.7457690238952637,3.66947078704834,1.5378011465072632,0.067745104432106,-0.0160270277410745,-0.9975739121437072,-1.1252402067184448,-0.2778725028038025,-0.0826568007469177,-0.9591030756222252,-0.017221683394122,-0.0302729465257156,0.2809061000902626,0.0160277145392915,0.0678057520251017,-0.5703751669013077,2840,4.344831148386832,1
1761597266370192640,9.601192712783812,1.5760101079940796,3.4720985889434814,1.298947811126709,0.1031521931290626,-0.0338083915412426,-0.9940908551216124,-1.0153378248214722,-0.2188008576631546,0.0181997418403625,-0.9602082678732003,-0.0304504924099008,-0.045026023629718,0.2739441969498431,0.0338148372313758,0.1033953219574259,-0.5575768199862936,2850,4.028218202614363,1
1761597266380238848,9.611238718032835,1.4450716972351074,3.212205171585083,1.057111382484436,0.1359733641147613,-0.0502673238515853,-0.9894364476203918,-0.9336265325546264,-0.1641034036874771,0.0834458470344543,-0.9606621226179652,-0.0425932002143459,-0.0588863886544948,0.2680417712747335,0.0502885178018039,0.1365696121098105,-0.5476351924044865,2860,3.67749626097513,1
1761597266390284800,9.62128472328186,1.323087453842163,2.9809505939483643,0.8228888511657715,0.166149616241455,-0.0654819458723068,-0.9839239716529846,-0.8345150947570801,-0.1272365599870681,0.1126776337623596,-0.9605648309844218,-0.0537476047234741,-0.0717579291851495,0.2632055438736926,0.0655288351808102,0.1672861360495255,-0.5403892233818601,2870,3.3635952365658635,1
1761597266400330752,9.631330728530884,1.125617265701294,2.7550735473632812,0.5864925980567932,0.1939370185136795,-0.0788614675402641,-0.9778391122817992,-0.7490212321281433,-0.0611684396862983,0.1654611825942993,-0.9599988430993114,-0.0637193587407383,-0.0837872041684324,0.2594641688245555,0.0789434380175457,0.1957914322236389,-0.5356941384263683,2880,3.0333839268713017,1
1761597266410375680,9.641375541687012,0.9846543669700624,2.5784969329833984,0.369458794593811,0.2196048498153686,-0.090058609843254,-0.9714232683181764,-0.6978000402450562,0.0250409096479415,0.1959105730056762,-0.959069362679087,-0.0724076817683902,-0.0951078053152545,0.2567053608698534,0.0901807954427025,0.2223279362704995,-0.5331338823175827,2890,2.7847244848818917,1
1761597266420421632,9.651421546936035,0.9998969435691832,2.338273763656616,0.0454333126544952,0.2433747202157974,-0.1002827286720275,-0.9647341966629028,-0.6221131086349487,0.098497450351715,0.2211276888847351,-0.9577093146970534,-0.0805028041055241,-0.1056039246034564,0.2552643971824971,0.1004515759404329,0.2471151813681399,-0.5334469568014942,2900,2.5434980396026714,1
1761597266430467584,9.66146755218506,0.9428943395614624,2.070065975189209,-0.2599652111530304,0.2646961808204651,-0.1094517707824707,-0.9581003189086914,-0.5629139542579651,0.1497349739074707,0.2628946304321289,-0.955934699337876,-0.0879614057315238,-0.1149461837801648,0.2554193130811728,0.109671488869209,0.2695482778447426,-0.5370736108157638,2910,2.2894988072115123,1
1761597266440513536,9.671513557434082,0.7433419227600098,1.9917945861816408,-0.4949925541877746,0.2845411300659179,-0.1166208237409591,-0.9515439867973328,-0.523280143737793,0.1661050766706466,0.2597715258598327,-0.9538478645266744,-0.0944424831754575,-0.1237280576352779,0.256799863818632,0.1168868048145637,0.2905675433707247,-0.5431003431520258,2920,2.1828468834016688,1
1761597266450559744,9.681559562683104,0.5147407054901123,1.9985883235931396,-0.7455983757972717,0.3042932748794555,-0.120704062283039,-0.9449000954627992,-0.5100275278091431,0.1564401537179947,0.2866511940956116,-0.9514629861379688,-0.0995982349607934,-0.1327786064934252,0.2591682857419751,0.1209990979449179,0.3115501010363021,-0.550900025145708,2930,2.19436328329719,1
1761597266460605696,9.691605567932127,0.4733854532241821,1.9756546020507812,-0.9568153023719788,0.3241848349571228,-0.1225516572594642,-0.9380220174789428,-0.5474819540977478,0.1865317523479461,0.3214448690414428,-0.948730437355978,-0.1039082354483839,-0.1420988275848464,0.2625290922478634,0.1228605162666195,0.3327538520479466,-0.560579235370831,2940,2.245618047839364,1
1761597266470651648,9.701651573181152,0.5107479691505432,1.8668423891067505,-1.148074984550476,0.3435539007186889,-0.1236510649323463,-0.9309570789337158,-0.5608848333358765,0.2193541824817657,0.2949554920196533,-0.9456513212702148,-0.1080379380653085,-0.151159691922997,0.2668746260488634,0.1239683487389979,0.3535290938316448,-0.5722901430373482,2950,2.250342232618803,1
1761597266480696576,9.71169662475586,0.5909915566444397,1.7484793663024902,-1.3517625331878662,0.3619424104690552,-0.124389998614788,-0.9238640666007996,-0.5503884553909302,0.2621310949325561,0.2926384806632995,-0.9422371216579332,-0.1121412068381595,-0.1596631403249788,0.2722519886718735,0.1247130336964561,0.3733916511127894,-0.5861498440006377,2960,2.2877309851774648,1
1761597266490742784,9.721742630004885,0.5989816188812256,1.6693917512893677,-1.5178303718566897,0.3794702887535095,-0.1245628148317337,-0.9167804718017578,-0.533996045589447,0.281377375125885,0.3464984893798828,-0.9385123703113636,-0.1161330280270542,-0.1676988245334071,0.2785402652181682,0.1248872040214824,0.3924452516826844,-0.6018730112640028,2970,2.33440717030281,1
1761597266500788736,9.731788635253906,0.5824519991874695,1.590103268623352,-1.703199028968811,0.3964199125766754,-0.123855248093605,-0.9096763730049132,-0.529629111289978,0.2687374353408813,0.4113395810127258,-0.9344702911161574,-0.1199059773637663,-0.1754547391005399,0.2856631356884381,0.1241741104379938,0.4109669143545135,-0.6192600049745388,2980,2.401783851333098,1
1761597266510834688,9.74183464050293,0.2101569473743438,1.6399322748184204,-1.8278006315231323,0.4130946099758148,-0.1204462200403213,-0.902687966823578,-0.5473566651344299,0.2567682564258575,0.4619225859642029,-0.9302087873178638,-0.1225752141625216,-0.1833884822829877,0.2933522955931636,0.120739360626617,0.4291786040444782,-0.6373248335547685,2990,2.4646295780739917,1
1761597266520880640,9.751880645751951,0.0579528734087944,1.8529456853866575,-1.9905864000320437,0.4311117529869079,-0.1132911145687103,-0.8951579332351685,-0.5679678916931152,0.2688697278499603,0.5019695162773132,-0.925661065438625,-0.123855913889951,-0.192563593655593,0.3012149760941348,0.1135348746793824,0.4488228959153738,-0.6551381753410377,3000,2.720147140233759,1
1761597266530926592,9.761926651000977,0.1251257807016372,1.9012192487716677,-2.1225991249084473,0.4502805173397064,-0.105095699429512,-0.8866804838180542,-0.5724729299545288,0.2636650204658508,0.468254029750824,-0.9205502587443136,-0.1251973629875594,-0.2024484257938072,0.3097214298874784,0.1052901314208503,0.4698897740386256,-0.6743350579642843,3010,2.8523180288947803,1
1761597266540972800,9.77197265625,0.143955260515213,1.8128727674484253,-2.12218976020813,0.4688609838485718,-0.0964274182915687,-0.8779926896095276,-0.5857127904891968,0.2778696715831756,0.3648396134376526,-0.915180179767652,-0.1265075089483991,-0.2121308916250637,0.3184989029715639,0.0965774800917553,0.4904876416877252,-0.694004716886261,3020,2.794802348345649,1
1761597266551017728,9.782017707824709,0.2172257453203201,1.8339321613311768,-2.179466724395752,0.4867659211158752,-0.0877168178558349,-0.8691172003746033,-0.587824821472168,0.4427583217620849,0.2820810675621032,-0.9096173367672418,-0.1279369928566996,-0.2215254522667682,0.3273452114416735,0.0878296983970719,0.5105411165456245,-0.7138174557771201,3030,2.856671034533581,1
1761597266561063680,9.79206371307373,0.2929921746253967,1.840049386024475,-2.2708699703216553,0.5045977234840393,-0.0789178907871246,-0.859740138053894,-0.5808916687965393,0.4996331930160522,0.3351277112960815,-0.9036473196714814,-0.1296716126359501,-0.2309008770983617,0.336587986592361,0.0790000353807023,0.5307455224798889,-0.7345951964101801,3040,2.9374268636868974,1
1761597266571109888,9.802109718322754,0.3327403664588928,1.83722460269928,-2.3123626708984375,0.5221221446990967,-0.069780595600605,-0.8500112891197205,-0.5873687267303467,0.4600699245929718,0.4461721181869507,-0.8973324200466023,-0.1315312085234296,-0.2401955656564566,0.3461217965916821,0.0698373491302232,0.5508339572786397,-0.7560202263921045,3050,2.9720584640950927,1
1761597266581155840,9.812155723571776,0.3096613585948944,1.8225892782211304,-2.311989068984986,0.5391092300415039,-0.0602919198572635,-0.8400750756263733,-0.5576639175415039,0.4029433131217956,0.4949517846107483,-0.8907951792100738,-0.1334011673040868,-0.249332283732335,0.3556986501720681,0.0603285078338939,0.5705461367157315,-0.7775111769544029,3060,2.9602390594679204,1
1761597266591201792,9.8222017288208,0.2158129066228866,1.8423603773117063,-2.338942050933838,0.5557628870010376,-0.0497498698532581,-0.829850971698761,-0.5410076379776001,0.351049929857254,0.4831865429878235,-0.8840780166331473,-0.1349385328958393,-0.2585848092013698,0.3651461792219818,0.0497704160147094,0.5901093732424711,-0.7984975123221003,3070,2.9852163888367858,1
1761597266601247744,9.832247734069824,0.2117959260940551,1.846204400062561,-2.4104866981506348,0.5720377564430237,-0.0380561016499996,-0.8193439841270447,-0.5388346314430237,0.3439795672893524,0.4863514304161072,-0.8770986627295058,-0.1361471271461178,-0.2679402377070415,0.3746597135649477,0.0380652927747602,0.6094937260403649,-0.819368684259731,3080,3.043644907521498,1
1761597266611293696,9.842293739318848,0.2403892278671264,1.9003185033798216,-2.480576992034912,0.5880769491195679,-0.0257035996764898,-0.8083964586257935,-0.5148195028305054,0.2984849512577057,0.4683085680007934,-0.8697263829584654,-0.13737040529134,-0.2773646572220301,0.3844140299311729,0.0257064312824719,0.6289194657949841,-0.8407142160096756,3090,3.1340484374966593,1
1761597266621338624,9.852338552474976,0.2488063722848892,1.8930989503860471,-2.5709195137023926,0.6038733124732971,-0.0125712547451257,-0.796981155872345,-0.4735937714576721,0.23785200715065,0.4591668248176574,-0.8619315373049959,-0.1385731222349805,-0.2868918077250499,0.3944166889521668,0.0125715859164238,0.6484114583580823,-0.862530904201944,3100,3.202398381335162,1
1761597266631384576,9.862384557724,0.2834125757217407,1.8107450008392336,-2.622516632080078,0.6186977624893188,0.0012461626902222,-0.7856281399726868,-0.4670864343643188,0.2370961308479309,0.4477680325508117,-0.8538303111597089,-0.1396301121956516,-0.2961239033976905,0.4047072934659367,-0.0012461629852714,0.6670846567972191,-0.884816713689558,3110,3.19948646374354,1
1761597266641430528,9.872430562973022,0.3036133050918579,1.7201590538024902,-2.6505541801452637,0.6322449445724487,0.0154925715178251,-0.774613618850708,-0.4661378264427185,0.2243755906820297,0.4331982731819153,-0.8455505241839207,-0.140525205814073,-0.3048702179712743,0.4151518904570232,-0.0154931916162492,0.6845453407016793,-0.9072975844498063,3120,3.1743606712679973,1
1761597266651476736,9.882476568222046,0.3969440460205078,1.7351316213607788,-2.673085451126098,0.6448664665222168,0.0299172457307577,-0.7637094855308533,-0.4641108512878418,0.180516704916954,0.4428781867027282,-0.8370369688039433,-0.1414520842810791,-0.3132675546182459,0.4257039857060247,-0.0299217101330176,0.7012264749447874,-0.9300393575118616,3130,3.2114844150547004,1
1761597266661522688,9.89252257347107,0.557697057723999,1.7301604747772217,-2.6848273277282715,0.6570739150047302,0.0436908304691314,-0.7525589466094971,-0.4880675673484802,0.1453655809164047,0.4839279651641845,-0.8281351791762142,-0.1429824554711032,-0.3213666847032518,0.4364304777804557,-0.0437047408416364,0.7177639663853174,-0.9536361611650654,3140,3.2423416008175137,1
1761597266671568640,9.902568578720093,0.6588329672813416,1.5855300426483154,-2.692822217941284,0.6681121587753296,0.0569641068577766,-0.7418769001960754,-0.5297912359237671,0.1686981320381164,0.5157415866851807,-0.8190289492135842,-0.144803979809643,-0.3287755620913479,0.4473589967703725,-0.0569949606915979,0.733129986076964,-0.9779659375537764,3150,3.193627700962547,1
1761597266681614592,9.912614583969116,0.7484571933746338,1.4276520013809204,-2.720835447311402,0.6774045825004578,0.0699262768030166,-0.7322795391082764,-0.5256254076957703,0.2379350364208221,0.5150096416473389,-0.8098913896907155,-0.1466001652539378,-0.3352142756420238,0.458492851413828,-0.0699833870015537,0.74649065105458,-1.00284979370694,3160,3.1624869863301286,1
1761597266691659776,9.922659635543823,0.797447919845581,1.3198493719100952,-2.805572032928467,0.6851893067359924,0.0829667299985885,-0.7236242890357971,-0.4503260254859924,0.2276716828346252,0.4736395478248596,-0.800590734226113,-0.148287683705011,-0.340879182416746,0.4699644908351911,-0.0830622109900489,0.7581231296153162,-1.0285428429110992,3170,3.2014309271555255,1
1761597266701705728,9.932705640792848,0.7191957831382751,1.1955299377441406,-2.8619894981384277,0.6913531422615051,0.0966867730021476,-0.7160184979438782,-0.3980182409286499,0.1797566711902618,0.4813688397407532,-0.7911930451779127,-0.1494845162994427,-0.3458975841786459,0.4816873691425546,-0.0968380559378705,0.7678741324340367,-1.0545998176913252,3180,3.183946967834269,1
1761597266711751680,9.94275164604187,0.6424427032470703,1.0803275108337402,-2.8776824474334717,0.6958264112472534,0.1110730245709419,-0.7095691561698914,-0.3720502257347107,0.1784166991710662,0.5065357089042664,-0.7819123186774017,-0.1500021387535934,-0.3503067127564447,0.4933534724428257,-0.1113026920977828,0.7756199393016165,-1.0802378294900543,3190,3.1402064304574506,1
1761597266721797632,9.952797651290894,0.6015896797180176,0.991690456867218,-2.8802502155303955,0.6995980143547058,0.126694306731224,-0.7032148241996765,-0.3476541042327881,0.181670531630516,0.528394877910614,-0.7724401878520163,-0.1499380964760862,-0.3548396211784387,0.5049192814923142,-0.1270357200352088,0.7828199337132015,-1.1054118295700726,3200,3.1050284071241006,1
1761597266731843584,9.962843656539915,0.6289134621620178,0.8801868557929993,-2.8778133392333984,0.702231764793396,0.1425928175449371,-0.6975226998329163,-0.337546706199646,0.1599584370851516,0.5218634605407715,-0.7629454797512674,-0.1495393298385484,-0.3589939466815274,0.5164063886992726,-0.143080515710351,0.7887623681148022,-1.1304189876373156,3210,3.074422004128429,1
