time,seconds_elapsed,rotationRateX,rotationRateY,rotationRateZ,gravityX,gravityY,gravityZ,accelerationX,accelerationY,accelerationZ,quaternionW,quaternionX,quaternionY,quaternionZ,pitch,roll,yaw,omega_mag,label
1761072583678708992,16.647709131240845,0.0894216671586036,-0.1467468589544296,0.1769619882106781,-0.3071003556251526,0.8530870676040649,-0.4218196272850036,0.069688856601715,0.08133065700531,0.0075587630271911,0.3415013619909472,-0.3714071939458603,0.3887761386446807,-0.7708998920818243,-1.0218735762531832,-0.6292961022004117,-2.6685025075466795,0.24667067203437767,backhand
1761072583688754944,16.657755136489868,0.1112539917230606,-0.1583619713783264,0.2164832949638366,-0.3059267103672027,0.8533065319061279,-0.4222283959388733,0.0855439901351928,0.098323106765747,0.0126062035560607,0.3427897793981725,-0.3713954838368239,0.3885243895019649,-0.7704604684055395,-1.02229426444767,-0.6270149071814227,-2.6640916942151276,0.29038075289444404,backhand
1761072583698800128,16.667800188064575,0.153558000922203,-0.1791183352470398,0.2279602587223053,-0.3045975267887115,0.85345858335495,-0.4228814244270324,0.0971238017082214,0.1019246578216552,0.0235131680965423,0.3442564861713107,-0.3713270503067131,0.3881694320172124,-0.7700182372125487,-1.022585959860277,-0.6242144042532854,-2.6589280490653397,0.3280690738634695,backhand
1761072583708846080,16.6778461933136,0.1905232071876526,-0.2384815216064453,0.2673063278198242,-0.3032296895980835,0.8535411357879639,-0.4236970245838165,0.1235879957675933,0.1118823885917663,0.0434022843837738,0.3459677789286748,-0.3713134633854976,0.3876568113743077,-0.7695158754364345,-1.0227443862466394,-0.6211693057033624,-2.6529775661610517,0.40574031290631446,backhand
1761072583718892032,16.687892198562622,0.2786877453327179,-0.3032826781272888,0.3353733718395233,-0.3016971349716186,0.8535066246986389,-0.4248591065406799,0.1532291173934936,0.127999722957611,0.0453577637672424,0.3481228018942697,-0.3713395259773385,0.3868816488916866,-0.7689213448567752,-1.0226781712559696,-0.6174797068839812,-2.645504504265243,0.5311520881910431,backhand
1761072583728937984,16.697938203811646,0.3468393683433532,-0.3662714958190918,0.4012940526008606,-0.2998754382133484,0.8533339500427246,-0.4264925122261047,0.1606389880180359,0.1458725929260254,0.0515230298042297,0.3508013761966891,-0.3713482237175921,0.3858163324504921,-0.7682347580467535,-1.0223469149295106,-0.6128168752934703,-2.6361299583127757,0.6445845737645243,backhand
1761072583738984192,16.70798420906067,0.385025143623352,-0.4131562411785126,0.4744251668453216,-0.2976773381233215,0.8531367182731628,-0.4284226894378662,0.148034393787384,0.1724675297737121,0.0693223476409912,0.3539651181721418,-0.3713337369961036,0.3845775726668762,-0.7674113144942066,-1.0219687398394552,-0.6072420503360877,-2.625025733637772,0.7375782533285206,backhand
1761072583749029120,16.718029260635376,0.4037293195724487,-0.4281732738018036,0.5428526997566223,-0.2950328588485718,0.8530226945877075,-0.4304742217063904,0.1324199140071869,0.1895188093185424,0.0875329375267028,0.3575012724364217,-0.3712625822422708,0.3833105653965279,-0.7664398636370061,-1.0217501512991407,-0.6008375595677788,-2.6125608433827052,0.8006364777560664,backhand
1761072583759075072,16.7280752658844,0.4560575783252716,-0.4339973926544189,0.6060276031494141,-0.2920074462890625,0.8528212904930115,-0.4329289197921753,0.1356811821460724,0.209175169467926,0.0974644422531127,0.3613320619457454,-0.3710350610289946,0.381927374039339,-0.7654433883551998,-1.0213643708868632,-0.593401162452032,-2.5987808771548404,0.8738487897558529,backhand
1761072583769121280,16.738121271133423,0.4587500393390655,-0.4877634048461914,0.6780327558517456,-0.288538783788681,0.8526764512062073,-0.4355319738388061,0.1745556890964508,0.2440642118453979,0.130005270242691,0.3655131298039121,-0.3707314789456905,0.3805156756893881,-0.7643075507864493,-1.0210870715918094,-0.5851106000336171,-2.583673788997116,0.9529392193149869,backhand
1761072583779167232,16.748167276382446,0.4498548507690429,-0.5617745518684387,0.7698689103126526,-0.2846937179565429,0.8527482748031616,-0.4379152655601501,0.2266493141651153,0.2765241265296936,0.1569704711437225,0.3701196236543547,-0.3705384746327032,0.3791353422176188,-0.7628689155024155,-1.0212245223660918,-0.5764535359360142,-2.5673219113957173,1.0538776840570323,backhand
1761072583789211904,16.758212089538574,0.4652633666992187,-0.6280111074447632,0.8701022863388062,-0.2803104519844055,0.8530384302139282,-0.4401721954345703,0.2555911839008331,0.288074791431427,0.1492786407470703,0.3752394960853774,-0.3703997780435684,0.3777802409513816,-0.7611054570077784,-1.0217803737879092,-0.567053969821722,-2.54928900223919,1.1695922110540526,backhand
1761072583799258112,16.768258094787598,0.503178060054779,-0.6869653463363647,0.9441426992416382,-0.2754599750041961,0.8534245491027832,-0.4424797594547272,0.2461783587932586,0.3087000846862793,0.156758964061737,0.3808446913783914,-0.3702772266456893,0.3763706832917737,-0.7590765472322484,-1.022520676454006,-0.556826104829697,-2.5295555812312576,1.2714224253641349,backhand
1761072583809304064,16.77830410003662,0.4978804886341095,-0.7438344359397888,1.016646385192871,-0.2702404856681824,0.8538641929626465,-0.4448437392711639,0.2166974544525146,0.3180565237998962,0.1710705459117889,0.3868610461763748,-0.3701766216168399,0.3748965181665197,-0.7568092919982925,-1.023364704971795,-0.5459125549676511,-2.5083624552561687,1.3545274163257586,backhand
1761072583819350016,16.788350105285645,0.4951940476894378,-0.7963907122612,1.0942596197128296,-0.2646341025829315,0.854465663433075,-0.4470539093017578,0.1880654990673065,0.3259695172309875,0.1872882843017578,0.3932396117938211,-0.3701378558023241,0.373458185920287,-0.7542476282195508,-1.024521370210491,-0.5344802475383266,-2.4859246661860737,1.4411313010191047,backhand
1761072583829395968,16.798396110534668,0.4897542595863342,-0.866096556186676,1.1774578094482422,-0.2586346268653869,0.8552274703979492,-0.4491037130355835,0.1684399247169494,0.3377656936645508,0.2042306661605835,0.3999898238082464,-0.3701688789572939,0.3720526026254472,-0.7513721150888683,-1.0259896002517046,-0.5225033720673847,-2.462178225493837,1.5415542067835408,backhand
1761072583839441152,16.808441162109375,0.4926863610744476,-0.9286808371543884,1.2845861911773682,-0.2521187365055084,0.8561392426490784,-0.4510674476623535,0.1561409533023834,0.3527231216430664,0.2166924476623535,0.4072288545121263,-0.3702530340614332,0.3706466805013323,-0.7481299642028755,-1.0277514238799987,-0.5096794722656233,-2.43662922567636,1.6599245857116927,backhand
1761072583849487104,16.8184871673584,0.5055006742477417,-0.9774486422538756,1.3661712408065796,-0.2450439929962158,0.857192873954773,-0.4529612362384796,0.141070619225502,0.364853024482727,0.2298014163970947,0.4148963681970699,-0.3703412943654325,0.3692786377880039,-0.7445412274543396,-1.029793880070433,-0.495893457088875,-2.409344942050542,1.75424075859497,backhand
1761072583859533056,16.828533172607422,0.5216901898384094,-1.0294382572174072,1.4275256395339966,-0.2375961244106292,0.8582231998443604,-0.4549734592437744,0.1279007345438003,0.3697429895401001,0.2406180500984192,0.4229240704131605,-0.3704180568188452,0.3678365517777702,-0.7406901251736706,-1.0317979622318272,-0.4812649870442769,-2.3805231908785633,1.8356833144971914,backhand
1761072583869579008,16.838579177856445,0.5353402495384216,-1.100886344909668,1.5030579566955566,-0.2298594266176223,0.8592391014099121,-0.4570261836051941,0.1329508423805236,0.3734574317932129,0.2677103877067566,0.4312931410538295,-0.3705395322550802,0.3663159389088954,-0.7365456128455454,-1.0337804649550657,-0.4660015308921005,-2.350296401100042,1.9384847557745328,backhand
1761072583879624960,16.84862518310547,0.5604349970817566,-1.178141713142395,1.6023863554000854,-0.2217051982879638,0.8602421879768372,-0.4591624438762665,0.1457622051239013,0.378527283668518,0.2895762324333191,0.4401230420287531,-0.3706976075141119,0.3646944793134791,-0.7320334249248952,-1.0357445199602398,-0.4498312573510558,-2.318176736445332,2.0663366894512847,backhand
1761072583889670144,16.858670234680176,0.5925670862197876,-1.2600769996643066,1.7011950016021729,-0.2130834460258484,0.8611748218536377,-0.4614904224872589,0.1440679430961609,0.3792426586151123,0.3058813214302063,0.4494763249014734,-0.3708657751737223,0.3629233503898155,-0.7271287804238946,-1.0375763555524775,-0.4325647208993814,-2.2838677838050376,2.1984072030063553,backhand
1761072583899716096,16.8687162399292,0.6085537075996399,-1.3404520750045776,1.8090859651565552,-0.2039328962564468,0.8620504140853882,-0.4639831781387329,0.125746876001358,0.378061830997467,0.3251129686832428,0.4591890077126645,-0.3709488670009481,0.3611168106951225,-0.72189820337319,-1.0393015314903025,-0.4141101075553581,-2.247739259287391,2.3323681977217428,backhand
1761072583909762048,16.878762245178223,0.5910724401473999,-1.4091304540634155,1.9164047241210935,-0.1942189782857895,0.8629398345947266,-0.4664909839630127,0.0951894521713256,0.3618221282958984,0.3445580005645752,0.4693003629422928,-0.3710120155115115,0.3593112840330862,-0.7162420387470584,-1.04105901880394,-0.3945129669181966,-2.209657670045786,2.451045151094613,backhand
1761072583919808256,16.888808250427246,0.5286114811897278,-1.473141074180603,2.0242786407470703,-0.1839112788438797,0.86406409740448,-0.4685828387737274,0.0633821189403534,0.34894859790802,0.3718421459197998,0.4798763547102727,-0.3712485867017899,0.3576074183752563,-0.7099366703737245,-1.04328812318236,-0.374010347889344,-2.1694501378867703,2.558765080633309,backhand
1761072583929853184,16.898853302001953,0.4764460325241089,-1.5379462242126465,2.123999834060669,-0.1730002760887146,0.8654044270515442,-0.4702617228031158,0.0377311259508132,0.3436715006828308,0.3858805894851684,0.4906770453859774,-0.3715479392484819,0.3561197476005127,-0.703112298258068,-1.0459569531554218,-0.3525146679664748,-2.1276570223561317,2.6652682239443837,backhand
1761072583939899136,16.908899307250977,0.4087879061698913,-1.5973029136657717,2.2215638160705566,-0.1615120619535446,0.8669716119766235,-0.4714596271514892,0.0097023397684097,0.3580803275108337,0.4050381183624267,0.5018847751856064,-0.372056091496373,0.3547456154310631,-0.6955871950556342,-1.0490930380110308,-0.3300482425016562,-2.0836672352138614,2.7665556092567347,backhand
1761072583949945088,16.9189453125,0.4296055436134338,-1.6468931436538696,2.301978349685669,-0.1494622528553009,0.8685513734817505,-0.4725247323513031,-0.0235266685485839,0.384607195854187,0.4160062074661255,0.5132717419587203,-0.3725406458373023,0.3534842257602759,-0.6876151392841133,-1.0522718295187612,-0.3063481768289484,-2.0379740955053243,2.8628521219474603,backhand
1761072583959991040,16.928991079330444,0.4827188849449157,-1.7339354753494265,2.3787505626678467,-0.1370850354433059,0.8697398900985718,-0.4740888774394989,-0.050475999712944,0.3852039575576782,0.4275190234184265,0.5250656536373932,-0.372964286230967,0.3519278436875899,-0.6792278777541242,-1.0546749908795328,-0.2814775406267779,-1.9900678577316688,2.982952227902804,backhand
1761072583970036992,16.939037084579468,0.5221078395843506,-1.8305025100708008,2.481981039047241,-0.1243527680635452,0.8705283999443054,-0.4761478304862976,-0.0612856820225715,0.3974159359931946,0.4469577670097351,0.537190852418553,-0.37327688811215,0.3501291885810567,-0.6704475647954219,-1.0562749945186114,-0.2554582304620928,-1.9401721348135663,3.127869228999346,backhand
1761072583980081920,16.949082136154175,0.5346841812133789,-1.9284634590148928,2.5685815811157227,-0.1112473830580711,0.8709911704063416,-0.4785378575325012,-0.0678145214915275,0.3873553872108459,0.4575417637825012,0.5499745654379786,-0.3737117825533544,0.3479519717016577,-0.6609061817924897,-1.0572161729719731,-0.2284163707494766,-1.8873005329866928,3.2561433975245087,backhand
1761072583990128128,16.9591281414032,0.5475448369979858,-2.041551351547241,2.6213743686676025,-0.0980893298983573,0.8711105585098267,-0.4811911284923553,-0.079278826713562,0.3319381475448608,0.4733939170837402,0.5629654068118418,-0.3741927745346423,0.3455201827280421,-0.6508959873547532,-1.0574592700064895,-0.2010917666617356,-1.833162742220353,3.3673937771272,backhand
1761072584000174080,16.96917414665222,0.5316099524497986,-2.167591094970703,2.6731746196746826,-0.0851510241627693,0.8709156513214111,-0.4839990735054016,-0.0862509310245513,0.2741648554801941,0.4935663640499115,0.5762125225688467,-0.3749021268164407,0.3427081158108545,-0.6402957030345455,-1.0570625190880776,-0.174150026773266,-1.777918632590237,3.4823731626310317,backhand
1761072584010220032,16.979220151901245,0.5148640275001526,-2.291010856628418,2.726365804672241,-0.0724129304289817,0.8705169558525085,-0.4867818355560303,-0.0894828215241432,0.2645995616912842,0.5043752193450928,0.5895060289606197,-0.3758023551817035,0.3396787687125332,-0.6291848456647103,-1.056251814319966,-0.1476755301142225,-1.7221480897288313,3.5981781797027605,backhand
1761072584020265216,16.989265203475952,0.5495071411132812,-2.3951621055603027,2.751607894897461,-0.0599497146904468,0.8697445392608643,-0.4898473620414734,-0.1091634482145309,0.2604739069938659,0.4965307414531708,0.6029237157206915,-0.3768261585691074,0.3362712691731622,-0.6175812773052437,-1.054684427510278,-0.1217788899221388,-1.665790138818688,3.689187663606799,backhand
1761072584030311168,16.999311208724976,0.5728119015693665,-2.4892914295196533,2.752140522003174,-0.0479807741940021,0.868455171585083,-0.4934405386447906,-0.1467671692371368,0.2532336711883545,0.5050371885299683,0.6162496478268726,-0.3778191296968826,0.3324641905715497,-0.6057695562104766,-1.0520777517139095,-0.0969324580828929,-1.6099538835981422,3.7548585523973355,backhand
1761072584040357120,17.009357213974,0.5646407008171082,-2.5753281116485596,2.7553770542144775,-0.0365952178835868,0.8667827248573303,-0.4973415434360504,-0.1888686567544937,0.2795338034629822,0.5247615575790405,0.6297257610391153,-0.3790389184940942,0.3281138984110656,-0.5933939021815714,-1.0487141679778342,-0.073449295538176,-1.553898422470558,3.813559585814574,backhand
1761072584050403072,17.019403219223022,0.548809289932251,-2.6457631587982178,2.7675929069519043,-0.0256841089576482,0.8648524284362793,-0.5013687014579773,-0.2263147979974746,0.2893986105918884,0.5315200686454773,0.6430170694408072,-0.3803394218942804,0.3235082466711974,-0.580700728146917,-1.044856347825062,-0.0511832467271244,-1.498511693219809,3.8679225467659455,backhand
1761072584060449024,17.029449224472046,0.4968505203723907,-2.7201039791107178,2.793633222579956,-0.0151456454768776,0.8627597689628601,-0.5053872466087341,-0.2603212893009186,0.2692134976387024,0.5430764555931091,0.6562629704624995,-0.3818232153571274,0.3186179659261273,-0.5674615546123954,-1.0407027638444917,-0.0299594293298068,-1.4430858779825158,3.9306758552532344,backhand
1761072584070494208,17.039494276046753,0.4384796321392059,-2.8056564331054688,2.834005117416382,-0.004872977733612,0.8606699705123901,-0.5091399550437927,-0.3039038777351379,0.2725850343704223,0.5505523681640625,0.6692690304913382,-0.3834754693372075,0.3136503990543819,-0.5537589865875411,-1.0365840292956825,-0.0095707054256908,-1.3879213560373078,4.011926895391948,backhand
1761072584080540160,17.049540281295776,0.3862840831279754,-2.884117603302002,2.8592886924743652,0.0051341885700821,0.8585548996925354,-0.5126960873603821,-0.3595806062221527,0.2914542555809021,0.5480049252510071,0.6822746149526209,-0.3854053818837389,0.3084066377255968,-0.5393046789975061,-1.0324445027223277,0.0100137627815704,-1.3320993269246997,4.079568797001255,backhand
1761072584090586112,17.0595862865448,0.3753629922866821,-2.9596171379089355,2.8726918697357178,0.0147238327190279,0.8563198447227478,-0.5162359476089478,-0.4159079194068908,0.3098178505897522,0.5398412942886353,0.6950132704975023,-0.3874273839401843,0.3029555014082586,-0.5244755165385039,-1.0281010572564229,0.028513786908692,-1.2768090502881355,4.14156849000815,backhand
1761072584100632064,17.069632291793823,0.3610781133174896,-3.0387048721313477,2.8838417530059814,0.0238446369767189,0.8538399338722229,-0.5199892520904541,-0.4560498297214508,0.3185386061668396,0.5380709171295166,0.7076134770317302,-0.3895074203032473,0.2971352283182921,-0.5091933119241931,-1.0233181642580067,0.0458239186492638,-1.221774252131365,4.204836258430561,backhand
1761072584110678272,17.079678297042847,0.3336123824119568,-3.129892349243164,2.895622491836548,0.0324180983006954,0.8512001633644104,-0.5238391160964966,-0.4821403920650482,0.3412131667137146,0.5406543016433716,0.7198979374703206,-0.3916258492780116,0.2910492018219422,-0.4936259205488053,-1.0182677488211944,0.0618067805193033,-1.1676033650886843,4.27693265726492,backhand
1761072584120722944,17.089723110198975,0.2906031310558319,-3.2104618549346924,2.911104679107666,0.0404576770961284,0.84848952293396,-0.5276634693145752,-0.5085515975952148,0.3371946811676025,0.5337059497833252,0.7320282164325309,-0.3939358250458116,0.2845748042111294,-0.4774583484538365,-1.0131245070130368,0.0765235309997468,-1.1134234471739293,4.343506182163519,backhand
1761072584130768896,17.099769115447998,0.2344234883785247,-3.2590203285217285,2.9120140075683594,0.0480566769838333,0.8457838892936707,-0.531356930732727,-0.5512304902076721,0.3019059300422668,0.5289002656936646,0.7437655335440557,-0.3963232041903654,0.2779378356012068,-0.4609678208444805,-1.0080326975503353,0.090196030306237,-1.0598982548124551,4.376756042309848,backhand
1761072584140815104,17.10981512069702,0.1556392014026641,-3.2956771850585938,2.8950114250183105,0.0551442950963974,0.8432492613792419,-0.5346866846084595,-0.6015615463256836,0.291424810886383,0.5398746728897095,0.7550988534259253,-0.3989416355273578,0.2711129701857089,-0.4440372478353773,-1.003299739606957,0.1027705028896457,-1.0067766804291314,4.389396635087281,backhand
1761072584150861056,17.119861125946045,0.1105675995349884,-3.334232807159424,2.8888626098632812,0.0617457628250122,0.8408464789390564,-0.5377404689788818,-0.6352015733718872,0.2974134683609009,0.5309045314788818,0.7658989910520497,-0.4016557386951381,0.2642015285248155,-0.4269297978359473,-0.998845158596403,0.1143237855484054,-0.9546316731678344,4.413033059594187,backhand
1761072584160905984,17.129906177520752,0.075554683804512,-3.3785393238067627,2.8773815631866455,0.0678772628307342,0.8384690284729004,-0.5407056212425232,-0.6534790992736816,0.3004928827285766,0.5169323682785034,0.7763760410238777,-0.4044766187554637,0.2569938759818504,-0.4093815248444011,-0.9944676873304482,0.1248813384012181,-0.902656499786868,4.438418764934183,backhand
1761072584170952192,17.139952182769775,0.036444567143917,-3.40584659576416,2.860597610473633,0.0735289379954338,0.8361284136772156,-0.5435833930969238,-0.6709105372428894,0.2970655560493469,0.4989819526672363,0.7863645399050165,-0.4072996188604844,0.2496303743162105,-0.3916920088062108,-0.9901866925275143,0.1344510159645224,-0.8515867433044151,4.44793636750798,backhand
1761072584180998144,17.1499981880188,-0.0185107626020908,-3.431633710861206,2.8372600078582764,0.0787268131971359,0.8339000344276428,-0.5462717413902283,-0.6889258027076721,0.2823261618614197,0.4723276495933532,0.7959026547281906,-0.4101999608838804,0.2420746191048151,-0.3737309579369032,-0.9861367775329588,0.1431310850610968,-0.80101210486989,4.45269546747171,backhand
1761072584191044096,17.160044193267822,-0.1230627372860908,-3.481611728668213,2.817922592163086,0.0833597183227539,0.8319902420043945,-0.5484920740127563,-0.7019815444946289,0.2604628205299377,0.4501796960830688,0.8048344472078537,-0.4132842207509147,0.2344144417269721,-0.3556510321640955,-0.982685451324823,0.1508256259360298,-0.7513660574249962,4.480787029298707,backhand
1761072584201090048,17.170090198516846,-0.2055718898773193,-3.51865816116333,2.788285970687866,0.0874693244695663,0.8304973244667053,-0.5501121878623962,-0.7104551792144775,0.2273182272911071,0.4450859427452087,0.8132734023004117,-0.4167018643528763,0.2265027031520111,-0.3371090298397428,-0.97999987159177,0.157682715968943,-0.7016713324797011,4.494191107570284,backhand
1761072584211135232,17.180135250091553,-0.259880930185318,-3.573887348175049,2.7489237785339355,0.0909104570746421,0.8293448090553284,-0.5512917041778564,-0.7185502648353577,0.1961221098899841,0.4628975391387939,0.8211014762025097,-0.4203089689937543,0.2183907665703548,-0.3184936865845114,-0.977934000403466,0.1634336052259922,-0.6529437755569011,4.516280639587066,backhand
1761072584221181184,17.190181255340576,-0.2484134286642074,-3.619742393493652,2.7252936363220215,0.0937693268060684,0.8282477259635925,-0.5524608492851257,-0.7221567630767822,0.2099144458770752,0.4535076022148132,0.8285213237946689,-0.42392312336952,0.2099017769209216,-0.299637899309762,-0.9759734228085724,0.1681279865822222,-0.60464341089121,4.537782457431511,backhand
1761072584231227136,17.2002272605896,-0.1638082712888717,-3.6595869064331055,2.705112934112549,0.0961245819926261,0.8268157243728638,-0.5541984438896179,-0.7387637495994568,0.2275208234786987,0.4279472231864929,0.8356158732174409,-0.4271713183651771,0.20106077321659,-0.2807943233146578,-0.973422677572588,0.1717393357901467,-0.5573156934044478,4.5537946222663885,backhand
1761072584241273088,17.210273265838623,-0.1255123168230056,-3.660929918289185,2.676673889160156,0.0980244800448417,0.8249678015708923,-0.556614100933075,-0.7837849855422974,0.2148575782775879,0.4009897708892822,0.8424184236029011,-0.4299632123458076,0.1918973216664694,-0.2619889231976151,-0.9701452394643694,0.1743210328756883,-0.5109797967927642,4.536820948330548,backhand
1761072584251318016,17.22031807899475,-0.1315837800502777,-3.625079870223999,2.619086742401123,0.0995140150189399,0.8230767250061035,-0.5591437816619873,-0.8393974304199219,0.1995215415954589,0.4017035961151123,0.8487078238313527,-0.4324970714130102,0.1826866298126438,-0.2434480397087889,-0.9668073351714552,0.1761315018542587,-0.4660576831301414,4.474162907281863,backhand
1761072584261363968,17.230364084243774,-0.1569470316171646,-3.5803256034851074,2.5567893981933594,0.1006279438734054,0.8212903141975403,-0.5615658164024353,-0.8808556199073792,0.1647630929946899,0.3825344443321228,0.8545115480171889,-0.434927607976385,0.1733640154334023,-0.2249284201643904,-0.9636690363320656,0.1773099273256828,-0.4218718635030799,4.40233299790218,backhand
1761072584271409920,17.240410089492798,-0.1900370866060257,-3.537437438964844,2.5016002655029297,0.1013531759381294,0.8197124004364014,-0.5637366771697998,-0.9014172554016112,0.1316425204277038,0.3468177914619446,0.8597272089162379,-0.4372707863832901,0.1640911907135305,-0.2067301886104011,-0.9609087059780346,0.1778877352784807,-0.379068630150116,4.336770874422603,backhand
1761072584281455872,17.25045609474182,-0.2067730128765106,-3.4930615425109863,2.429694175720215,0.101704366505146,0.818366527557373,-0.5656258463859558,-0.9095504283905028,0.0991444587707519,0.3187081217765808,0.8643949054569396,-0.4395640856557503,0.1548240832786001,-0.188771027471141,-0.95856289649964,0.1779075042655303,-0.3373826367685774,4.260005611047008,backhand
1761072584291502080,17.260502099990845,-0.2369133383035659,-3.458140134811402,2.350736618041992,0.1015559881925582,0.8171960115432739,-0.5673421621322632,-0.9121944308280944,0.0647315382957458,0.3232167363166809,0.8685262290374539,-0.4417431472674112,0.1455744519341255,-0.1712697459150167,-0.9565291195449152,0.1771271297149563,-0.2973957995571802,4.188176664046428,backhand
1761072584301547008,17.27054715156555,-0.2840762138366699,-3.455380439758301,2.286364793777466,0.1008436903357505,0.8163501620292664,-0.5686852335929871,-0.9022963047027588,0.0391032695770263,0.3270776271820068,0.8721526346512968,-0.4439767622363763,0.1361690675793399,-0.1539232938635892,-0.9550631046609204,0.1755033799873113,-0.2583854952878464,4.153049150799581,backhand
1761072584311592960,17.280593156814575,-0.3078316152095794,-3.4402620792388916,2.229498863220215,0.0996159240603447,0.8158029913902283,-0.5696860551834106,-0.8930424451828003,0.0018849968910217,0.3025046586990356,0.8753951997361262,-0.4463256251987897,0.1262949475646481,-0.1361114479677174,-0.9541163122627652,0.1731108889633329,-0.2188600623636001,4.111061743427344,backhand
1761072584321639168,17.2906391620636,-0.3205653131008148,-3.41549301147461,2.1767520904541016,0.0980385988950729,0.8154733777046204,-0.5704311728477478,-0.8984689116477966,-0.0269144177436828,0.286312460899353,0.8780825471643949,-0.4485237089964279,0.1166657833499544,-0.119108281119122,-0.9535466372586788,0.1702046811095054,-0.1815766837985019,4.0628320534685685,backhand
1761072584331685120,17.300685167312622,-0.2220387458801269,-3.3851687908172607,2.102349281311035,0.0960820615291595,0.8150127530097961,-0.5714215636253357,-0.9152044057846068,-0.0189769864082336,0.2669476270675659,0.8805354041789138,-0.4504608881580912,0.1066499825122547,-0.1018247194501042,-0.9527511631775996,0.1665873723229349,-0.144149114439426,3.991057685329071,backhand
1761072584341731072,17.310731172561646,-0.1141829937696456,-3.346064567565918,2.008906841278076,0.0935495421290397,0.8140698075294495,-0.5731831192970276,-0.9266794323921204,-0.0015392899513244,0.2553425431251526,0.8826797644841191,-0.4516184633311011,0.0972070138581435,-0.086417839876856,-0.9511257139330778,0.1617841163989535,-0.1117359089112896,3.9044708403726296,backhand
1761072584351776000,17.320776224136353,-0.0642386004328727,-3.317805051803589,1.8952122926712036,0.0902890637516975,0.8128535747528076,-0.575427770614624,-0.9240903258323668,0.0099309086799621,0.238452672958374,0.8847568193104755,-0.4524769889920506,0.0868946581185057,-0.07013861904581,-0.949034560268661,0.155638719922215,-0.0781534516265811,3.8214901012368236,backhand
1761072584361822208,17.330822229385376,-0.0111515158787369,-3.29044246673584,1.7372550964355469,0.0859719961881637,0.8115578889846802,-0.5779122710227966,-0.9075204730033876,-0.0478097796440124,0.2273568511009216,0.8865201617570326,-0.4529553389513086,0.0766507533013052,-0.0551189913508245,-0.9468136026663672,0.1476800065356218,-0.0484372420376872,3.7209126908994135,backhand
1761072584371868160,17.3408682346344,-0.0855607688426971,-3.263852596282959,1.604898452758789,0.0804665386676788,0.8106996417045593,-0.5799062252044678,-0.888953447341919,-0.1569063067436218,0.2275502681732177,0.8878824895096662,-0.4535519119477812,0.0658599997283293,-0.0402217905434611,-0.9453461081666088,0.1378774572586067,-0.0199557932624889,3.63809750544093,backhand
1761072584381914112,17.350914239883423,-0.1658604741096496,-3.22896671295166,1.495078206062317,0.0741549432277679,0.8104718923568726,-0.581064760684967,-0.8825045228004456,-0.2117780447006225,0.1869913339614868,0.8887026322432028,-0.4542833294444088,0.055626128424459,-0.0272024403803338,-0.9449572869899696,0.1269329280108382,0.0037391162250435,3.5621615028609024,backhand
1761072584391959296,17.36095929145813,-0.0883853808045387,-3.1841418743133545,1.331429123878479,0.0669249519705772,0.8103705048561096,-0.5820830464363098,-0.9002989530563354,-0.2300940155982971,0.1438201069831848,0.8893022425592334,-0.4549439353802529,0.0445477179769356,-0.0135267444616066,-0.9447841719011492,0.1144722742716318,0.0281214753703955,3.452430298095465,backhand
1761072584402005248,17.371005296707153,0.1251857131719589,-3.110365152359009,1.1991848945617676,0.0587618649005889,0.8095183968544006,-0.5841464400291443,-0.923157036304474,-0.2365050911903381,0.0840091109275817,0.8899838571626346,-0.4547395167749371,0.0337454130594326,-0.0014336561557437,-0.9433313685829222,0.1002571412824943,0.0479474188180805,3.3358787830400507,backhand
1761072584412051200,17.381051301956177,0.2420212626457214,-3.0465617179870605,1.0912227630615234,0.0499680526554584,0.8078327178955078,-0.5872898101806641,-0.9216874241828918,-0.2190114259719848,0.0491734147071838,0.8908033056594596,-0.4537005669901912,0.0226027007158209,0.0106886939959116,-0.9404658118025392,0.0848780270341452,0.0671559625596099,3.245131694045794,backhand
1761072584422097152,17.3910973072052,0.3813495934009552,-2.985408067703247,0.9768806099891664,0.0405107885599136,0.8055295944213867,-0.5911691188812256,-0.8946214914321899,-0.2389249801635742,0.0333994030952453,0.8916800631251577,-0.4519774239643804,0.0114831361338632,0.0221606438495293,-0.936568628739486,0.0684196041003042,0.0843124651517346,3.1642352266017637,backhand
1761072584432143104,17.401143312454224,0.2952384352684021,-2.936025857925415,0.8629719018936157,0.0302886627614498,0.8030609488487244,-0.5951265692710876,-0.8514861464500427,-0.3261170387268066,0.0318636894226074,0.8924554090561494,-0.4499295332794519,0.0003513118575035,0.0329624972715764,-0.9324142619048856,0.0508506123799043,0.0994279843988661,3.0744323176034123,backhand
1761072584442188032,17.41118812561035,0.1666560918092727,-2.837141275405884,0.7553857564926147,0.0195255000144243,0.8015390038490295,-0.5976236462593079,-0.8118381500244141,-0.3886972665786743,-0.0106679797172546,0.8927209987336632,-0.4484115949758668,-0.0107337582918148,0.0431411710293989,-0.9298646682524212,0.032660281288328,0.1129595567792927,2.9407061244981256,backhand
1761072584452234496,17.421234607696533,0.1879704296588897,-2.7217154502868652,0.5654624104499817,0.0081595266237854,0.800425112247467,-0.5993772745132446,-0.7810477018356323,-0.4976297616958618,-0.0129274129867553,0.8927183929909701,-0.447037374003514,-0.0216549663870489,0.0523704532747444,-0.9280041081866988,0.0136124979555168,0.124006118374446,2.7861829825745983,backhand
1761072584462280448,17.431280612945557,0.2258322685956955,-2.6100268363952637,0.4294970333576202,-0.0039740307256579,0.7991636991500854,-0.6011002063751221,-0.7616356611251831,-0.5592193007469177,-0.0474135279655456,0.8926807746879036,-0.4454171059777096,-0.0324576275126272,0.0605887926778444,-0.9259026959218648,-0.0066111653490642,0.1322379649987698,2.6547519661741554,backhand
1761072584472326400,17.44132661819458,0.2525144815444946,-2.476766586303711,0.3023902177810669,-0.0164073910564184,0.7978029847145081,-0.6026949286460876,-0.7509571313858032,-0.4846163392066955,-0.1155057549476623,0.8925968389183618,-0.4436286514847374,-0.0429668434593378,0.0679585797017706,-0.92364243052173,-0.0272166541259002,0.1384315355232956,2.5079027354006183,backhand
1761072584482372608,17.451372623443604,0.400176078081131,-2.330580949783325,0.1240996569395065,-0.0292455162853002,0.7959238886833191,-0.6046899557113647,-0.7533472776412964,-0.4246928095817566,-0.1631780862808227,0.8926450924906629,-0.4413953648183445,-0.0531522138572015,0.0743625959261999,-0.920532135369755,-0.0483268234907966,0.1422649867367312,2.3679419718003745,backhand
1761072584492417280,17.46141743659973,0.6064642667770386,-2.1768288612365723,-0.0539558380842208,-0.0427117832005023,0.7928754091262817,-0.6078850626945496,-0.7554754614830017,-0.4614545106887817,-0.2295324802398681,0.8930852987343494,-0.4382801773021258,-0.0629916063625516,0.079631677858621,-0.9155131897397945,-0.0701476382874318,0.1432895270797829,2.260374754427525,backhand
1761072584502463232,17.471463441848755,0.7147341966629028,-2.032874822616577,-0.1723094582557678,-0.0565467178821563,0.7887184619903564,-0.6121484637260437,-0.740145206451416,-0.5407020449638367,-0.2988165616989136,0.893883776513935,-0.4343743413680971,-0.0724203107128122,0.0839413813140849,-0.9087215886240056,-0.0921127827911753,0.1422473780773588,2.1617390142457396,backhand
1761072584512509440,17.48150944709778,0.7521556615829468,-1.9100757837295532,-0.2834272086620331,-0.0704908668994903,0.7840262651443481,-0.6167120933532715,-0.6917008757591248,-0.6357719302177429,-0.3140587210655212,0.8948215842296746,-0.430131063971007,-0.0814323066200489,0.0874662529027887,-0.9011258902984608,-0.1138071874324898,0.1397754678351222,2.0723075595700795,backhand
1761072584522555392,17.4915554523468,0.6042440533638,-1.8738529682159424,-0.3752881288528442,-0.0848655328154563,0.7795248031616211,-0.6205956935882568,-0.6328163743019104,-0.7240743041038513,-0.3002722263336181,0.8956221826100745,-0.4260741736684514,-0.0903489951808678,0.0903265192535451,-0.8939067765745654,-0.135905534218668,0.1358097998911104,2.004314596607798,backhand
1761072584532600320,17.50160050392151,0.6284287571907043,-1.7835280895233154,-0.5087559223175049,-0.0996933728456497,0.775393545627594,-0.6235591769218445,-0.575584352016449,-0.771304190158844,-0.2426059246063232,0.8962204210231276,-0.422340765969921,-0.0992404926207472,0.0925666530035434,-0.8873380906471386,-0.1585362605480505,0.1303713092215422,1.958246087057517,backhand
1761072584542646528,17.511646509170532,0.6470188498497009,-1.775784254074097,-0.7214226722717285,-0.1156644895672798,0.7706376910209656,-0.626689076423645,-0.5374116897583008,-0.7817461490631104,-0.0811966061592102,0.8969565990595947,-0.4182545505199688,-0.1082523955921091,0.0938793282361457,-0.8798411892162438,-0.1825105346838893,0.1224784174286133,2.022991295370795,backhand
1761072584552692480,17.521692514419556,0.6482976675033569,-1.6597857475280762,-0.8415509462356567,-0.1326614171266555,0.7656573057174683,-0.629420280456543,-0.5450271964073181,-0.6658495664596558,-0.226536750793457,0.8976742427816957,-0.4141360782456883,-0.1173932068499921,0.0942930376680521,-0.8720625620312032,-0.2077272822311683,0.1122534436251908,1.9706310127717357,backhand
1761072584562738432,17.53173851966858,0.9915665984153748,-1.423150658607483,-0.9587180018424988,-0.1493008285760879,0.759346067905426,-0.6333268284797668,-0.6004092693328857,-0.5358200073242188,-0.3833662271499634,0.8987979046409469,-0.4092704481865173,-0.1258343283380262,0.0939457415644192,-0.8623074964233106,-0.2315136547970387,0.1014143198618406,1.981843163129924,backhand
1761072584572784384,17.541784524917603,1.5287688970565796,-1.15146803855896,-1.183890461921692,-0.1656408458948135,0.7495549917221069,-0.6408825516700745,-0.6680536270141602,-0.5205663442611694,-0.456697404384613,0.90103697562694,-0.4022466421618149,-0.1332530287579802,0.0925936513823861,-0.8473895054128173,-0.2529226032281714,0.0902503529592027,2.2504687534510595,backhand
1761072584582829568,17.55182957649231,1.8931655883789065,-0.9447258710861206,-1.418877363204956,-0.1821444779634475,0.7360205054283142,-0.6519947648048401,-0.6920772790908813,-0.544187068939209,-0.4677256345748901,0.9043827613231192,-0.3930171302373302,-0.1397860850669459,0.0899398181370513,-0.8271729320324868,-0.2724197044898899,0.0780801547684867,2.547507779838352,backhand
1761072584592875520,17.561875581741333,1.8129512071609497,-0.8113803863525391,-1.490991234779358,-0.1986398547887802,0.720773458480835,-0.6640992760658264,-0.6557455062866211,-0.573861837387085,-0.4245085120201111,0.9080750847641588,-0.3830131593367588,-0.1457781915619181,0.0863093401923039,-0.8049174919905826,-0.2906416376262756,0.0650815594355876,2.483583111774763,backhand
1761072584602921472,17.571921586990356,1.3681435585021973,-0.694034218788147,-1.5052402019500732,-0.2143906354904174,0.7068791389465332,-0.6740611791610718,-0.584208607673645,-0.6061559319496155,-0.3809467554092407,0.91119741902081,-0.3742352812397008,-0.1513848221578569,0.0821572572145461,-0.7850763219362956,-0.3079404484553781,0.0515060337203864,2.149243671407834,backhand
1761072584612967424,17.58196759223938,0.9041210412979126,-0.5334765315055847,-1.7058206796646118,-0.2298118770122528,0.695694088935852,-0.6805852055549622,-0.5461738109588623,-0.6778871417045593,-0.3155390620231628,0.9134485222561533,-0.3676230505175522,-0.1567184884881645,0.0768404809294486,-0.7693857247162864,-0.3256467085820855,0.03502268651782,2.002961871368571,backhand
1761072584623013376,17.592013597488403,0.8839512467384338,-0.3736561238765716,-2.0538530349731445,-0.2458399087190628,0.6853151917457581,-0.6854967474937439,-0.5465947389602661,-0.8245364427566528,-0.1125836968421936,0.9153609998158132,-0.3620108118122322,-0.1618635435265919,0.0697316843820105,-0.7550364206823181,-0.3443425043517599,0.0143728569498139,2.267002645518812,backhand
1761072584633058560,17.60205864906311,0.8617894649505615,-0.450021743774414,-2.28741717338562,-0.2636772990226745,0.6735119223594666,-0.6905476450920105,-0.5522101521492004,-0.9305156469345092,-0.079365074634552,0.9173518083748534,-0.3559338136420891,-0.1674434372607931,0.061151521871026,-0.738949660651312,-0.3647520661864167,-0.0094737181092956,2.4854532739259048,backhand
1761072584643104256,17.612104415893555,0.7342677116394043,-0.3288929164409637,-2.3452115058898926,-0.2819733321666717,0.6616432666778564,-0.6947799324989319,-0.5965514183044434,-0.770087480545044,-0.1675552129745483,0.9190778843813698,-0.3501862721698164,-0.173146171985946,0.0518242756453598,-0.7230081988466766,-0.3855354421922973,-0.034689650423523,2.479382308196852,backhand
1761072584653150208,17.622150421142578,0.7605142593383789,-0.2476867437362671,-2.397863388061523,-0.2995735704898834,0.64955073595047,-0.6988129019737244,-0.7035545110702515,-0.5406488180160522,-0.0911956429481506,0.9206726820779236,-0.3446091241773497,-0.1784323448557785,0.0420505255282455,-0.7069934309403169,-0.4049913251980684,-0.0599440820991005,2.52774197446764,backhand
1761072584663196416,17.6321964263916,0.921255588531494,-0.1576589494943618,-2.6007914543151855,-0.3170031905174255,0.6360034346580505,-0.7035684585571289,-0.7989330291748047,-0.4097155928611755,-0.0551137328147888,0.9223799231517424,-0.3384746769250712,-0.1834411325576168,0.0316148324702257,-0.689308112370808,-0.4233235150410195,-0.0854476731857641,2.7636360817942496,backhand
1761072584673241344,17.64224147796631,1.1780431270599363,-0.0821040123701095,-2.964679479598999,-0.3354118466377258,0.6194695830345154,-0.709757924079895,-0.8760749697685242,-0.4180077910423279,0.00812828540802,0.9243817026892404,-0.3310056574568789,-0.1885637465608445,0.0199360667130155,-0.6680668532459525,-0.4414655869555338,-0.1123020812491086,3.1912146738845095,backhand
1761072584683287296,17.652287483215332,1.323708415031433,-0.1532244980335235,-3.3307945728302,-0.3554723560810089,0.5993635058403015,-0.7172187566757202,-0.9251519441604614,-0.5641920566558838,0.193964421749115,0.9265880093959952,-0.322034342421817,-0.1941249462007818,0.0066380073819491,-0.6427057537497357,-0.4601423907440692,-0.1412962271687202,3.587460689849823,backhand
1761072584693333504,17.662333488464355,1.2523149251937866,-0.1060119718313217,-3.5447633266448975,-0.3768326044082641,0.577302098274231,-0.7243751883506775,-0.9922012090682985,-0.684052586555481,0.2898201942443847,0.9285067098091184,-0.3125866708155807,-0.2002547543064983,-0.0079287250201017,-0.6154207305312844,-0.4796904078400491,-0.1722061870946419,3.7609677281201557,backhand
1761072584703379456,17.67237949371338,0.9478491544723512,0.0044004204683005,-3.619473457336426,-0.3976834714412689,0.5551607608795166,-0.7305096387863159,-1.1156984567642212,-0.7117312550544739,0.4016065001487732,0.9298949555857744,-0.3037075720315349,-0.2061719828738,-0.0234549423184455,-0.588556251921091,-0.498527295602317,-0.2044323015574598,3.7415271603580735,backhand
1761072584713424384,17.682424545288086,0.610724925994873,0.2180783599615097,-3.6700947284698486,-0.4167434871196747,0.534671425819397,-0.7351539731025696,-1.2987868785858154,-0.6023289561271667,0.3265083432197571,0.930587363437728,-0.296311097888838,-0.2112409878555832,-0.0398012651589602,-0.5641188624680185,-0.5157098821123451,-0.2380393217670218,3.7269476012223617,backhand
1761072584723470336,17.69247055053711,0.4796662330627441,0.4220805168151855,-3.9224307537078857,-0.4344072937965393,0.5145165920257568,-0.7392989993095398,-1.427577018737793,-0.5107629299163818,0.2703354358673095,0.9307836626417472,-0.2896716944682885,-0.2155012723507061,-0.0573704096611287,-0.5404437729503611,-0.5312471198058617,-0.27354854576692,3.974128165453272,backhand
1761072584733516544,17.702516555786133,0.496411383152008,0.5590924024581909,-4.374409198760986,-0.451620876789093,0.4923833012580871,-0.7440412044525146,-1.4901821613311768,-0.5415775775909424,0.1875684261322021,0.9306519756682152,-0.2826478793325408,-0.2192933206508683,-0.0768612580835391,-0.5148258655323258,-0.5455387245527804,-0.3118237754117384,4.437844568483004,backhand
1761072584743562496,17.712562561035156,0.4790500998497009,0.5838666558265686,-5.031963348388672,-0.469955712556839,0.4669418632984161,-0.7490707039833069,-1.491668462753296,-0.6736526489257812,0.1846481561660766,0.9299025353762392,-0.2748735132921055,-0.2234036491841455,-0.0990791568394897,-0.4858293039115983,-0.5603125106749832,-0.3546543819753193,5.088324322355941,backhand
1761072584753608448,17.72260856628418,0.5357005596160889,0.5374602675437927,-5.831845760345459,-0.4903140366077423,0.4370402991771698,-0.754047691822052,-1.52024507522583,-0.8815746307373047,0.2660868763923645,0.9281920253173892,-0.2660521121999893,-0.2284566489964749,-0.1244319511250687,-0.4523054193801225,-0.5765458688633732,-0.4027743786125209,5.881008723103592,backhand
1761072584763653632,17.732653617858887,0.7371447682380676,0.3916572630405426,-6.739321231842041,-0.513204038143158,0.400414377450943,-0.7591376304626465,-1.6721291542053225,-1.177773356437683,0.349942684173584,0.925216432273036,-0.2553610507876299,-0.2349934242095563,-0.15343854437495,-0.41196901940788,-0.5944607134650967,-0.456518863590473,6.790819426769504,backhand
1761072584773699584,17.74269962310791,0.5680921077728271,0.2981384992599487,-7.454751014709473,-0.5376166105270386,0.3577146828174591,-0.7635500431060791,-2.011089324951172,-1.4175291061401367,0.2901461124420166,0.9204269143677922,-0.2433939103753068,-0.2428670173171619,-0.1859822931776769,-0.3658194927354218,-0.6134732348745509,-0.5157958373260824,7.482307658668324,backhand
1761072584783745536,17.752745628356934,-0.0386537127196788,0.2089848667383194,-8.157308578491211,-0.5619817972183228,0.3123888373374939,-0.765891432762146,-2.432036876678467,-1.475657939910889,0.329154372215271,0.9131082651405562,-0.2321047866223779,-0.2513596244147482,-0.2217634427831788,-0.317706692590367,-0.6330273639891343,-0.5813520955972519,8.160076717087833,backhand
1761072584793791488,17.762791633605957,-0.5254877805709839,0.0769285485148429,-9.26253890991211,-0.5859767198562622,0.2646443545818329,-0.7658946514129639,-2.88547420501709,-1.5110738277435305,0.4276683330535888,0.902344147445237,-0.2222181222356175,-0.2601379747188286,-0.2621495028698414,-0.2678351175901446,-0.6530875968662063,-0.6566650350040503,9.27775201580328,backhand
1761072584803837440,17.77283763885498,-1.345967173576355,-0.3040145933628082,-9.919742584228516,-0.6101261377334595,0.213160753250122,-0.7630914449691772,-3.3461878299713135,-1.6309616565704346,0.565062940120697,0.8874331321886243,-0.2133951616500586,-0.2700310619045298,-0.3066075327592333,-0.2148089346553442,-0.6744635917528315,-0.7408917901024498,10.015255635413371,backhand
1761072584813882368,17.78288245201111,-2.991952419281006,-0.2159436047077179,-10.24234104156494,-0.631698727607727,0.1670933067798614,-0.7569918036460876,-3.992874145507813,-1.2131595611572266,0.6844515204429626,0.8679291647864782,-0.2097553357921806,-0.278400442606901,-0.3538288819247031,-0.1678807925396949,-0.6954178976814177,-0.8351724034045807,10.67257986296571,backhand
1761072584823928320,17.792928457260132,-3.55825138092041,0.2170062661170959,-11.069716453552246,-0.6471849083900452,0.1237653717398643,-0.7522192597389221,-4.907762050628662,-0.4375013411045074,0.9410162568092346,0.8441604285276629,-0.2089750424060039,-0.2832310088693313,-0.4043546478787266,-0.1240835413074171,-0.7104821325487541,-0.9395006459027848,11.629568649412644,backhand
1761072584833974272,17.802974462509155,-4.197397232055664,0.3132220208644867,-11.508691787719728,-0.656592607498169,0.0782296881079673,-0.7501774430274963,-5.5452961921691895,0.0991995260119438,0.9555608034133912,0.8160572675110498,-0.2080424065528928,-0.2857089949658062,-0.4573173312286896,-0.078309698775955,-0.718971410965401,-1.0510262324990711,12.254233481648312,backhand
1761072584844020480,17.81302046775818,-5.302779197692871,0.5515956878662109,-11.856176376342772,-0.6601786017417908,0.036869041621685,-0.7502032518386841,-5.662346363067627,0.6961784362792969,0.949360966682434,0.783384954397027,-0.2093587476028474,-0.2847231659541506,-0.5112825032270377,-0.0368773978103224,-0.7216546576212857,-1.1704001565523632,12.99971704650933,backhand
1761072584854065408,17.823065519332886,-6.706782341003418,1.195331335067749,-11.978201866149902,-0.65613853931427,0.0027191003318876,-0.7546355724334717,-5.821629524230957,1.2054871320724487,1.0080077648162842,0.7459327946827939,-0.2129895500550963,-0.2780605318855816,-0.5664821937158769,-0.002719103795588,-0.7156935277705204,-1.3000322675578388,13.77995160791311,backhand
1761072584864111360,17.83311152458191,-8.171703338623047,2.408082962036133,-11.969712257385254,-0.6414846181869507,-0.0182075779885053,-0.7669197916984558,-6.03899621963501,1.850727081298828,1.120145559310913,0.7046017443240566,-0.2185907050353172,-0.2622178500238683,-0.6220902990401571,0.0182085835151365,-0.6965706236592767,-1.4399582034549347,14.691821212195258,backhand
1761072584874157312,17.843157529830933,-8.946253776550293,3.8481764793396,-11.59091091156006,-0.6143569946289062,-0.0258255880326032,-0.7886054515838623,-6.038337707519531,2.713706970214844,1.1100928783416748,0.6604154739793688,-0.2229584549843934,-0.2366152765668635,-0.6768709543309364,0.0258284603045555,-0.6618305494061661,-1.5865317448101202,15.13912595265344,backhand
1761072584884203520,17.853203535079956,-9.223503112792969,5.459632396697998,-11.023489952087402,-0.5742030739784241,-0.0197899527847766,-0.8184736967086792,-5.668625354766846,3.6353142261505127,0.9275435209274292,0.6153894754461708,-0.2232958537022409,-0.2022427304917414,-0.7283767108239239,0.0197912450803097,-0.6117678375913597,-1.7323165595331942,15.375237438899857,backhand
1761072584894249472,17.86324954032898,-8.753830909729004,6.897353649139404,-10.467257499694824,-0.5206690430641174,-0.0032368307001888,-0.8537524938583374,-5.155585289001465,4.54454231262207,0.6985858678817749,0.5705114393187573,-0.2168195180722545,-0.1615953435265414,-0.7754953080539965,0.003236836412923,-0.5476375749727993,-1.872145544661041,15.289425186132444,backhand
1761072584904294400,17.873294591903687,-8.357778549194336,7.853425979614258,-9.739739418029783,-0.4569391012191772,0.0215184818953275,-0.889237642288208,-4.478088855743408,5.032741546630859,0.2646801471710205,0.5260198824984249,-0.2036585694237389,-0.1179167491619138,-0.8172648657774527,-0.0215201421797894,-0.4746699675809367,-2.003023699039333,15.046304723279277,backhand
1761072584914340608,17.88334059715271,-8.317684173583984,8.881523132324219,-8.538165092468262,-0.3847872316837311,0.0588562749326229,-0.921126902103424,-3.699700593948364,5.093014240264893,-0.0492557883262634,0.4832539817087169,-0.1855864952504863,-0.0706697595826918,-0.8526599655530769,-0.0588903093889931,-0.3957013467994176,-2.1221618098922197,14.864911244529624,backhand
1761072584924386560,17.893386602401733,-8.370427131652832,10.056324005126951,-7.2431182861328125,-0.3022661507129669,0.1099700704216957,-0.9468588829040528,-3.075404167175293,5.076812744140625,0.01987224817276,0.4434336518291837,-0.1618863324969348,-0.0190623657569769,-0.8813602935777983,-0.1101929379462997,-0.3090046946153743,-2.226483790999478,14.955148456946656,backhand
1761072584934432512,17.903432607650757,-7.230185031890869,10.483397483825684,-6.477899551391602,-0.2126068919897079,0.1678705513477325,-0.962609887123108,-2.6081786155700684,4.971381187438965,0.0816742181777954,0.4065130227069782,-0.1326301732413941,0.0332309537067448,-0.9033559953645018,-0.1686691638321246,-0.2173752831593241,-2.314327583375334,14.28777032980237,backhand
1761072584944477440,17.913477420806885,-5.876585483551025,10.771327018737791,-6.085885524749756,-0.1216620430350303,0.220241293311119,-0.9678285717964172,-2.038768768310547,4.009174823760986,0.0317628979682922,0.3710943561363552,-0.0984061249609204,0.0800122286444641,-0.919893043203659,-0.2220618379310832,-0.1250502659209225,-2.388666666237005,13.696486604616236,backhand
1761072584954523392,17.923523426055908,-5.713489055633545,10.744269371032717,-5.624225616455078,-0.0317336618900299,0.2709636986255646,-0.9620663523674012,-1.7585800886154177,2.6845874786376953,0.7294308543205261,0.335819855102862,-0.0614477361829765,0.1232517881269599,-0.9318037163237112,-0.274394031895293,-0.0329729456866895,-2.454330327723311,13.40578961833079,backhand
1761072584964569344,17.93356943130493,-6.821070671081543,10.644521713256836,-4.576619625091553,0.0552254989743232,0.3311841189861297,-0.941948652267456,-1.7929879426956177,1.6037981510162354,1.669518232345581,0.3025943506015021,-0.0249366319868025,0.1685343968501114,-0.9377692268248924,-0.3375582297621006,0.0585619550688861,-2.5073564900208867,13.445381913380453,backhand
1761072584974615296,17.943615436553955,-7.999566555023193,10.76400375366211,-3.3245229721069336,0.1400793045759201,0.4041356146335602,-0.9039093852043152,-1.815479040145874,0.8482142686843872,2.3614442348480225,0.2733446371053778,0.0108888034330214,0.2189217780174419,-0.93660946201229,-0.4160336506627866,0.1537475053879243,-2.541163260831419,13.81699297492636,backhand
1761072584984661248,17.95366144180298,-8.264822006225586,10.747023582458496,-2.263181209564209,0.2228149324655532,0.4813291132450104,-0.8477474451065063,-1.6940521001815796,0.6220796704292297,2.502288579940796,0.2482333231994175,0.0473109766667975,0.2718233582511101,-0.9285762514397314,-0.5021703944002468,0.257018646568019,-2.552889491689212,13.745100503955374,backhand
1761072584994706432,17.963706493377686,-7.958288192749023,10.373865127563477,-1.24736225605011,0.3001540005207062,0.5524666905403137,-0.7776169776916504,-1.3702681064605713,0.9088827967643738,2.358198642730713,0.2269837570450569,0.0839607712694092,0.3227105472310078,-0.9150338334505238,-0.585320640309638,0.3683725675062002,-2.543137926941855,13.13420500987953,backhand
1761072585004752384,17.97375249862671,-6.98557710647583,9.871220588684082,-0.2526696324348449,0.3709892630577087,0.6107778549194336,-0.6995121836662292,-0.9429344534873962,1.371293067932129,1.956561803817749,0.2098217893967249,0.1205374011638634,0.368394663868547,-0.897625136330254,-0.6570426293306029,0.4876350825832659,-2.513143281967043,12.095582886497636,backhand
1761072585014798336,17.983798503875732,-5.695355415344238,9.516740798950195,0.945062816143036,0.4372532665729522,0.6513644456863403,-0.620107889175415,-0.5238773822784424,1.54516863822937,1.519338846206665,0.1968912434235238,0.1578666094455045,0.4062316976259424,-0.8782298189212074,-0.7093813351010307,0.6141569470804694,-2.4666899383627676,11.130973563347922,backhand
1761072585024844288,17.993844509124756,-4.6298112869262695,9.304304122924805,2.000607967376709,0.5020538568496704,0.6743903756141663,-0.5414236187934875,-0.1981598138809204,1.3850884437561035,1.0490071773529053,0.1879680534936459,0.197070327174395,0.4364074692561753,-0.8575429006303094,-0.7401387971777909,0.7476866600308977,-2.4079747460609213,10.583367139221647,backhand
1761072585034889472,18.003889560699463,-4.123859405517578,9.2540922164917,3.1316945552825928,0.5663498044013977,0.6824287176132202,-0.4621028304100036,-0.1359299421310424,1.0790916681289673,0.4191493391990661,0.1827083938428017,0.238264511913159,0.4606284957255236,-0.8352659066570245,-0.7510801605430314,0.8864161026259313,-2.3408659813877453,10.604336374115764,backhand
1761072585044935424,18.013935565948486,-4.133094787597656,9.264647483825684,3.9842584133148193,0.629948616027832,0.6782593727111816,-0.3783239722251892,-0.4250078797340393,0.8400359153747559,-0.0072351098060607,0.1809585648795005,0.2812433061432665,0.4813940324660358,-0.8101950959377506,-0.7453913000973594,1.0299628063516753,-2.2666080685559997,10.899104579133756,backhand
1761072585054981376,18.02398157119751,-4.0912299156188965,9.253575325012209,4.695454120635986,0.6903366446495056,0.6632486581802368,-0.2890270948410034,-0.914411962032318,0.853139340877533,-0.151448369026184,0.1817419376341321,0.325272640715187,0.4996840655401793,-0.7819740954058884,-0.7251512295533942,1.1742947082164914,-2.1903453509804915,11.154107221876938,backhand
1761072585065027584,18.034027576446533,-3.711289405822754,9.001031875610352,5.339906215667725,0.7455665469169617,0.63655686378479,-0.1972968280315399,-1.2676613330841064,1.034616231918335,-0.0725090503692627,0.1846111812411798,0.3697377928251326,0.5144371219579779,-0.7513768725220191,-0.6900255018901307,1.3120994205584369,-2.119936384944372,11.104361407647565,backhand
1761072585075073536,18.044073581695557,-3.29695725440979,8.553108215332031,6.133177757263184,0.7946450710296631,0.5974658131599426,-0.107581615447998,-1.380643606185913,1.2306745052337646,-0.1841511726379394,0.1898014273800778,0.4138699468907655,0.524328961760083,-0.7195597153939906,-0.6403370872164889,1.4362312475264172,-2.0618096922434836,11.029118581408646,backhand
1761072585085118464,18.054118633270264,-2.415557384490967,8.045039176940918,7.016920566558838,0.83783358335495,0.5454494953155518,-0.022799314931035,-1.3764383792877195,1.4217746257781982,-0.5167362093925476,0.197316401361282,0.4578302313279804,0.5281967646084328,-0.6873615936394115,-0.5769253402140364,1.5435908184604892,-2.020246915681044,10.945078669140731,backhand
1761072585095164416,18.064164638519287,-1.505131483078003,7.433356761932373,7.680842399597168,0.8746941685676575,0.4816689789295196,0.0539002530276775,-1.3543083667755127,1.4762625694274902,-0.6825776100158691,0.2066557485309506,0.5012838565985512,0.5250377339870089,-0.6560055741665188,-0.502558177143678,1.6323403366287608,-1.9982011697357625,10.794237050341627,backhand
1761072585105210624,18.07421064376831,-0.9225077033042908,6.953505516052246,8.028091430664062,0.9035589694976808,0.4103029072284698,0.1234206780791282,-1.4703009128570557,1.319204568862915,-0.6653060913085938,0.2165265107875569,0.5435299533726655,0.516028612722506,-0.625624408446604,-0.422786185807158,1.7065501333435904,-1.9929645448227875,10.660793190167723,backhand
1761072585115256576,18.084256649017338,-0.8503656387329102,6.625019073486328,8.436079025268555,0.923633635044098,0.3334727585315704,0.1889350116252899,-1.7375528812408447,1.1726611852645874,-0.7730720043182373,0.2270895964485874,0.5841524761540605,0.5032230060132006,-0.594947614947552,-0.3399847915659006,1.7725690119739337,-1.997746464044286,10.760177915079812,backhand
1761072585125302272,18.09430241584778,-0.9206764101982116,6.2202582359313965,8.961447715759277,0.9349143505096436,0.2502043843269348,0.2516610622406006,-1.997322678565979,1.2514894008636477,-0.7494637966156006,0.2394532836307184,0.6231539531308659,0.4873496565138858,-0.5628780968446025,-0.252891337190431,1.8337445407385595,-2.008415709351751,10.947456450530186,backhand
1761072585135347456,18.104347467422485,-0.7347137331962585,5.72206974029541,9.298638343811035,0.936995267868042,0.1617243736982345,0.309653639793396,-2.235731601715088,1.4036595821380615,-0.5690683126449585,0.2533170607673258,0.6601490784698896,0.4680064255105433,-0.5300978697446517,-0.1624377761144184,1.8899723042955896,-2.025710399945513,10.94287720078885,backhand
1761072585145393408,18.11439347267151,-0.3360072076320648,5.323793411254883,9.38451862335205,0.9293912649154664,0.0721444934606552,0.3619769513607025,-2.4911892414093018,1.4895925521850586,-0.373771995306015,0.2670770106683804,0.6947516022947908,0.4453186281673785,-0.497676080122353,-0.0722072266709837,1.9421987640312643,-2.0509620634268626,10.794668448884526,backhand
1761072585155439360,18.124439477920532,0.3659455776214599,5.150331020355225,9.27461051940918,0.9117618203163148,-0.0144172934815287,0.4104659259319305,-2.743030309677124,1.531873345375061,-0.2851608395576477,0.278357341627402,0.7277266112557529,0.4191025419717344,-0.4661374692452341,0.0144177928492921,1.9938081261981877,-2.087241099132763,10.615000050482779,backhand
1761072585165485312,18.134485483169556,1.4516953229904177,4.88446044921875,8.916131973266602,0.8849754333496094,-0.0926502421498298,0.4563268721103668,-2.8934898376464844,1.3835132122039795,-0.0953955054283142,0.2853938499560599,0.7588866167590991,0.3901980719590961,-0.4363333989289054,0.0927833118107253,2.046875848580046,-2.1351765493443486,10.269507415425604,backhand
1761072585175530496,18.144530534744263,2.214045286178589,4.5882158279418945,8.595836639404297,0.8510547280311584,-0.1600430160760879,0.5000922679901123,-2.820918560028076,0.9677212238311768,0.0726006627082824,0.2881055100693731,0.7878356256694053,0.3596681202673498,-0.4085941130607907,0.1607342308926895,2.1020592007386756,-2.192942072764171,9.9921033093314,backhand
1761072585185576448,18.15457653999329,2.738109827041626,4.1146240234375,8.317953109741211,0.8121408820152283,-0.2176938951015472,0.5413286089897156,-2.6005778312683105,0.4653592705726623,0.1474073529243469,0.2876713346394273,0.8144384185998876,0.3276497818981139,-0.3828589105315487,0.219451075954507,2.158714840422548,-2.258819235742639,9.67552170247395,backhand
1761072585195622400,18.16462254524231,2.9881398677825928,3.3828814029693604,7.961049556732178,0.7713340520858765,-0.2662091255187988,0.5780800580978394,-2.393251895904541,0.0645642280578613,0.2691642045974731,0.2853185376030648,0.8380372044179394,0.2945058019095964,-0.3599351641517547,0.269458080115435,2.2139484518260346,-2.330306113577377,9.151566887737493,backhand
1761072585205668352,18.174668550491333,2.9633548259735107,2.7444002628326416,7.491044998168945,0.7308897972106934,-0.3067106008529663,0.6096960306167603,-2.3079464435577393,-0.0691286623477935,0.3814692497253418,0.2821941969930281,0.8582200072150075,0.2613549833598365,-0.3398802682102438,0.3117351393809155,2.2660359654939337,-2.4035325414091737,8.510520535892523,backhand
1761072585215714560,18.184714555740356,2.979682207107544,2.224874496459961,6.5065083503723145,0.6925223469734192,-0.3386252224445343,0.6369820237159729,-2.371858835220337,0.0205709934234619,0.5300408005714417,0.2782467638996223,0.8750178813400653,0.2298580288674163,-0.3226264661119921,0.3454554134203514,2.3144435394306795,-2.4749775766514284,7.49421266670595,backhand
1761072585225759488,18.194759607315063,3.6749000549316406,1.840657114982605,5.2060675621032715,0.6588919162750244,-0.3567970395088196,0.6622365713119507,-2.428163766860962,-0.0701285898685455,0.722666323184967,0.2709589680069147,0.8889527476217426,0.2021912691648699,-0.3089707773661158,0.3648370250715101,2.358726165401037,-2.5423252940996055,6.632951717738986,backhand
1761072585235805440,18.204805612564087,4.061944007873535,1.51092791557312,4.303216934204102,0.6303783059120178,-0.3607061505317688,0.6873970031738281,-2.2524027824401855,-0.5433008670806885,0.8306236863136292,0.2590441234842803,0.901166496770761,0.1777567123932867,-0.2986599169677212,0.3690249137371373,2.3994364438311675,-2.6071028440064397,6.107369996322378,backhand
1761072585245851392,18.21485161781311,3.288722515106201,0.913378357887268,3.5958919525146484,0.607510507106781,-0.3590569496154785,0.7085263729095459,-1.8400695323944092,-0.8697487115859985,1.1151585578918457,0.2470587448185144,0.9109303137236962,0.156426142723904,-0.2910308304255568,0.3672572556041272,2.432801886814573,-2.6642432629838275,4.957861912173725,backhand
1761072585255897600,18.224897623062137,2.102283477783203,0.1687963455915451,2.83673095703125,0.5920130014419556,-0.3591880202293396,0.7214600443840027,-1.4504725933074951,-1.0057258605957031,1.3350584506988523,0.2391603509590708,0.917300982513375,0.1388845726933526,-0.2864826527365656,0.3673976929047927,2.454430507778794,-2.708316048410715,3.534845194605378,backhand
1761072585265942272,18.23494243621826,1.2367812395095823,-0.5424023270606995,2.037867307662964,0.5846787095069885,-0.3616568446159363,0.7261921763420105,-1.2141952514648438,-1.1933815479278564,1.3105356693267822,0.2353874655404091,0.9205045640888332,0.1255685031683017,-0.285476164352213,0.3700444176764694,2.463731815545774,-2.738669424723981,2.4447354217676027,backhand
1761072585275988224,18.244988441467285,0.8926605582237244,-1.0639057159423828,1.2320773601531982,0.5846570134162903,-0.3636298775672912,0.7252238392829895,-1.1200268268585205,-1.334139347076416,1.1764791011810305,0.233476770289712,0.9215208829572424,0.1158066304298457,-0.2878831797440681,0.3721615706381375,2.4630980254033035,-2.7588909697626285,1.8565432572459062,backhand
1761072585286034432,18.25503444671631,1.1169744729995728,-1.4516921043395996,0.2962544560432434,0.5909244418144226,-0.3612954318523407,0.7213002443313599,-1.09948468208313,-1.3416311740875244,1.03510844707489,0.2310285510087389,0.9211995691764818,0.109733661641172,-0.2932161690495315,0.3696567995918926,2.455224282472587,-2.7710554420836457,1.8554807037153704,backhand
1761072585296080384,18.265080451965332,1.2602277994155884,-1.929859399795532,-0.3111515939235687,0.6034718751907349,-0.3517287671566009,0.715617835521698,-1.0897693634033203,-1.2930924892425537,0.980411946773529,0.2260265211222066,0.9200563290282948,0.106326171362471,-0.3018330438367952,0.3594172276451124,2.4410082091694805,-2.7789294762332912,2.325800232995131,backhand
1761072585306126336,18.275126457214355,-0.1618426591157913,-1.9366103410720823,-1.039882779121399,0.6196429133415222,-0.3436478078365326,0.705655038356781,-1.0552507638931274,-0.9038650393486024,1.1088895797729492,0.2235279759281229,0.9173184711777808,0.1065567621460595,-0.3117816167669216,0.3507985169931635,2.421003824294733,-2.776973165717544,2.204089121104281,backhand
1761072585316171520,18.285171508789062,-1.0080431699752808,-2.0297441482543945,-1.9364171028137207,0.638542652130127,-0.3386901915073395,0.6910518407821655,-0.9276965260505676,-0.4421478807926178,1.206378698348999,0.225296552148309,0.9126050146209098,0.1125966824653703,-0.3220491779682245,0.345524461413238,2.3956665987310957,-2.75972956237688,2.9808930769110544,backhand
1761072585326217472,18.29521751403809,-1.4905463457107544,-2.344807386398315,-2.457735538482666,0.6610037088394165,-0.3326452672481537,0.6726222634315491,-0.7014701962471008,-0.5705071687698364,1.025635004043579,0.2286856722143331,0.906243555119134,0.122612200748763,-0.3337537547335181,0.3391072004827266,2.3649062931081466,-2.7327795132654105,3.709489731100554,backhand
1761072585336263424,18.30526351928711,-2.005305290222168,-2.4273018836975098,-2.794722557067871,0.6856874227523804,-0.3266472518444061,0.6504877209663391,-0.6315644979476929,-0.6314674019813538,0.8887883424758911,0.2338968070913714,0.8983340318221037,0.1350549514597207,-0.346480021564593,0.3327540440562174,2.3298569640510896,-2.699071114803692,4.209930867909647,backhand
1761072585346309376,18.315309524536133,-2.1921486854553223,-2.349203824996948,-3.12687087059021,0.7106350660324097,-0.3194302320480346,0.6268671154975891,-0.7959774136543274,-0.4151736497879028,0.7867376208305359,0.239961025949769,0.8894198529125371,0.149552284512707,-0.3591451461441474,0.3251281731947885,2.293646037346028,-2.660635075638152,4.483480334725398,backhand
1761072585356354560,18.32535457611084,-2.2787604331970215,-2.303455352783203,-3.354724645614624,0.7352110147476196,-0.3096884489059448,0.6029577851295471,-0.9232755303382874,-0.1398354768753051,0.6806116700172424,0.2459179700774418,0.8798098237496229,0.1655703949030546,-0.3715448181820355,0.3148653537790299,2.257682871994252,-2.6196193303417927,4.663993259221548,backhand
1761072585366400512,18.335400581359863,-2.3322296142578125,-2.341224431991577,-3.553612232208252,0.7594839334487915,-0.2974868714809418,0.5785201787948608,-0.8739859461784363,0.1441208124160766,0.6207900643348694,0.2516819152146405,0.86944780488606,0.1825393023507857,-0.3839219844471212,0.3020592706042653,2.2217611871378273,-2.577220143279287,4.852709213570863,backhand
1761072585376446464,18.345446586608887,-2.258101463317871,-2.447674036026001,-3.6944386959075928,0.7836424112319946,-0.2824296057224273,0.5532974600791931,-0.7483946084976196,0.3618058264255523,0.5601516962051392,0.2569637278268136,0.8582797483225818,0.2000114860278659,-0.3966370083991352,0.2863258929098398,2.185576880163561,-2.534604481156737,4.9738322934226,backhand
1761072585386492416,18.35549259185791,-2.1360034942626953,-2.577404022216797,-3.783836841583252,0.8075599074363708,-0.2644920647144317,0.5271539092063904,-0.6342046856880188,0.4811668395996094,0.4953987002372741,0.2615330627969993,0.8463590403857415,0.2173782827570666,-0.409906823709681,0.2676771887560075,2.149118968432867,-2.493240632145032,5.052023719754737,backhand
1761072585396538624,18.365538597106937,-2.0089495182037354,-2.6719563007354736,-3.8638527393341064,0.8308790922164917,-0.2437468022108078,0.5002276301383972,-0.5802838802337646,0.5288877487182617,0.4298718571662903,0.2654052706822866,0.8337017536237196,0.2346384647980406,-0.4236110270443649,0.2462273058892634,2.1127190736107075,-2.453255212013234,5.109264783801158,backhand
1761072585406583552,18.37558364868164,-1.999868869781494,-2.8343634605407715,-3.912728309631348,0.8533681631088257,-0.2205184400081634,0.4723714292049408,-0.5862782001495361,0.5339034199714661,0.3779398798942566,0.2686997487306123,0.8202834933638923,0.251636058776909,-0.4377383351588568,0.2223459614298687,2.0763515520114875,-2.414872170514226,5.229008945083223,backhand
1761072585416629248,18.385629415512085,-2.023982286453247,-2.8581326007843018,-3.974487543106079,0.8746891617774963,-0.1956312358379364,0.4434489607810974,-0.6196081638336182,0.5154860019683838,0.3313770592212677,0.2719691372885651,0.8059806998442401,0.2685509039011896,-0.4520046422199318,0.1969010870848243,2.040011464570456,-2.3771565291749632,5.297355707317373,backhand
1761072585426675200,18.39567542076111,-2.009768486022949,-2.956162929534912,-4.106840133666992,0.8945607542991638,-0.1684108078479766,0.4140036404132843,-0.6593465209007263,0.4468531906604767,0.2645394802093506,0.2748584131032532,0.7908538721944338,0.2855730696320075,-0.4663165132827324,0.1692172231552615,2.0042444591904656,-2.3402446998196873,5.444649163799751,backhand
1761072585436721408,18.405721426010132,-2.0518972873687744,-3.107417583465576,-4.156684398651123,0.913113534450531,-0.139001727104187,0.3832781016826629,-0.665524423122406,0.3969210386276245,0.2011792659759521,0.2776181754330431,0.7746259422644791,0.3026445145624979,-0.4809252169638503,0.1394532808931807,1.9682105753370205,-2.303880929958941,5.580712472967231,backhand
1761072585446766336,18.41576647758484,-1.985576033592224,-3.240044355392456,-4.209789276123047,0.9299946427345276,-0.1077879294753074,0.3514138162136078,-0.6401081681251526,0.372375339269638,0.1539267301559448,0.2801999884064456,0.7574309098348114,0.3193827236831532,-0.495763099973814,0.1079977424030698,1.9320777088465655,-2.268826409332242,5.671219036454769,backhand
1761072585456812800,18.42581295967102,-1.8302117586135864,-3.4156711101531982,-4.288303375244141,0.9450737237930298,-0.0742018297314643,0.3183240592479706,-0.6281942129135132,0.3192427158355713,0.1006976068019867,0.282197416381136,0.7392773450220291,0.335605474509543,-0.5110799872102828,0.0742700909842346,1.8956857054348335,-2.235935587380055,5.779794983581416,backhand
1761072585466858752,18.435858964920044,-1.6712749004364014,-3.576085090637207,-4.3940863609313965,0.9581141471862792,-0.0380253568291664,0.2838509380817413,-0.6350245475769043,0.3010716140270233,0.0757834911346435,0.2833722418013197,0.7201615670967125,0.3511307185976489,-0.527043376083861,0.0380345263224988,1.8588184314863485,-2.2058787186583477,5.906736773856589,backhand
1761072585476904960,18.445904970169067,-1.567458987236023,-3.761712074279785,-4.499505519866943,0.9687461853027344,0.0007190292235463,0.248053565621376,-0.6415213346481323,0.3433819413185119,0.08960822224617,0.2838543568944578,0.6999384648428858,0.3662143163518502,-0.5435071446761078,-0.0007190292944278,1.8214668642743703,-2.178066469884921,6.070663499961301,backhand
1761072585486950912,18.45595097541809,-1.5482364892959597,-3.996228456497192,-4.592172622680664,0.976711630821228,0.0415862761437892,0.2104877084493637,-0.6283382177352905,0.3947998285293579,0.1236187219619751,0.2839412909811588,0.6784130879028316,0.380788044745556,-0.5604761743304517,-0.041598273121445,1.7830565560971938,-2.152239835119185,6.281315745908911,backhand
1761072585496995584,18.46599578857422,-1.598482370376587,-4.185515880584717,-4.69962215423584,0.9816301465034484,0.0842748656868934,0.1711722910404205,-0.6468371152877808,0.4113763570785522,0.1470650285482406,0.2839658732687021,0.6553720264800025,0.3950615773397633,-0.5777345506679833,-0.0843749431936969,1.7434360254343293,-2.127581173105996,6.49308381800327,backhand
1761072585507041792,18.47604179382324,-1.7619754076004028,-4.307348728179932,-4.8104987144470215,0.9829848408699036,0.128711923956871,0.1310487538576126,-0.7008194923400879,0.4382283687591553,0.1768277734518051,0.2839672823228735,0.6308429219060946,0.4093428708181599,-0.5948429295031635,-0.1290699904744086,1.703331973241892,-2.1034555657390985,6.693183718144776,backhand
1761072585517087744,18.486087799072266,-1.8780503273010256,-4.455929756164551,-4.834526062011719,0.98050856590271,0.1743087470531463,0.0906617939472198,-0.7111451625823975,0.4710007309913635,0.213247537612915,0.2842537683394269,0.6048159454381183,0.423708115822867,-0.6114482542470911,-0.1752037298563968,1.6629982076273908,-2.0792130745086963,6.837764639706363,backhand
1761072585527133696,18.49613380432129,-1.7577091455459597,-4.654708385467529,-4.752480983734131,0.974200427532196,0.2201696783304214,0.0495867989957332,-0.6764251589775085,0.4287408590316772,0.1586041450500488,0.2845916750614662,0.5776515635063446,0.4371636662546267,-0.6278647713096667,-0.2219884140198751,1.6216524363302345,-2.056981746478565,6.880547005495433,backhand
1761072585537178880,18.506178855895996,-1.5389366149902344,-4.883791923522949,-4.5810065269470215,0.9641717076301576,0.2651824057102203,0.0071789524517953,-0.6650993824005127,0.3865968286991119,0.0795520544052124,0.2849860980135218,0.5496414188587382,0.4488694542499638,-0.6443552120532688,-0.2683931090084082,1.578241908998129,-2.038385605860961,6.8706164393856834,backhand
1761072585547224832,18.51622486114502,-1.4216262102127075,-5.061558723449707,-4.4213948249816895,0.95046865940094,0.3086683750152588,-0.036509446799755,-0.705733060836792,0.4189011454582214,0.0353803075850009,0.2855397207992925,0.5209595470707185,0.4586353968143192,-0.6608492065044957,-0.3137927416692398,1.5324031556012876,-2.0237349548645116,6.8694344738754465,backhand
1761072585557270784,18.526270866394043,-1.571766972541809,-5.136439800262451,-4.338782787322998,0.932986319065094,0.3509247004985809,-0.0799262896180152,-0.794146716594696,0.5178496837615967,0.0098427012562751,0.2864785527675529,0.4915141011914645,0.4673871445623435,-0.6766780023064839,-0.3585584245541177,1.4853378149951175,-2.0109228863239093,6.904962079060517,backhand
1761072585567316736,18.536316871643063,-1.82853901386261,-5.139081001281738,-4.340061187744141,0.911594808101654,0.3928193747997284,-0.1211937740445137,-0.865574300289154,0.5931119918823242,0.0332115888595581,0.287799855587219,0.4611584638634861,0.4761680204296222,-0.6912077489784471,-0.4036954087542363,1.4386244166234792,-1.997819090499548,6.9706412600503,backhand
1761072585577362688,18.54636287689209,-2.074063301086426,-5.095888614654541,-4.386645317077637,0.8862293362617493,0.4349982738494873,-0.1592921018600464,-0.870787501335144,0.6136467456817627,0.0607203394174575,0.289222555254907,0.4298601957645292,0.4853598236448473,-0.7042700767601382,-0.4500363577634747,1.392953883113893,-1.983985694288617,7.036510249244185,backhand
1761072585587407872,18.556407928466797,-2.2613377571105957,-5.049442291259766,-4.389952182769775,0.8570734858512878,0.4773631989955902,-0.1937771439552307,-0.8260981440544128,0.6408161520957947,0.0431576371192932,0.2904969301126962,0.3978118989036739,0.4948303970704636,-0.7158912068204974,-0.4976514701201602,1.348443101792932,-1.9699621146216064,7.062732903876641,backhand
1761072585597453824,18.56645393371582,-2.116168260574341,-4.9515275955200195,-4.31545877456665,0.8247566819190979,0.5187973976135254,-0.2250019162893295,-0.7441139817237854,0.6172347664833069,-0.0654491186141967,0.2914318590652935,0.3655985169507247,0.5038221592433284,-0.7263391134875637,-0.5454435954574521,1.304467225716706,-1.957560204797204,6.9006505542044945,backhand
1761072585607499776,18.576499938964844,-1.833616018295288,-4.870001316070557,-4.2424540519714355,0.7897710204124451,0.558284342288971,-0.2541267275810241,-0.6495274901390076,0.5001720786094666,-0.1133506894111633,0.2915519705067977,0.3338564173954147,0.5113477516996487,-0.7362478033471326,-0.5923164067609636,1.2594861820680554,-1.9498980857773407,6.713976236491076,backhand
1761072585617545728,18.586545944213867,-1.5743999481201172,-4.8217902183532715,-4.0971574783325195,0.752524197101593,0.5952300429344177,-0.2817951440811157,-0.5664127469062805,0.4492035508155823,-0.1114238500595092,0.2910714513868185,0.3026665783514191,0.5171995418691671,-0.7457713667872418,-0.6375518686930196,1.2124933978100776,-1.9474602815039603,6.520360075080517,backhand
1761072585627590912,18.596590995788578,-1.338147759437561,-4.76845121383667,-3.90181303024292,0.7137008905410767,0.628998339176178,-0.3082076609134674,-0.5265061259269714,0.4544214010238647,-0.1609238088130951,0.2906069423305596,0.272033509324022,0.5214345064874774,-0.7547524745149665,-0.6802640438946077,1.163142827842886,-1.9493438671010137,6.304990985544833,backhand
1761072585637636864,18.6066370010376,-1.2662029266357422,-4.655810356140137,-3.7456541061401367,0.673758864402771,0.6597979664802551,-0.3327395319938659,-0.5658944845199585,0.4952008128166199,-0.2132962346076965,0.2898917123215644,0.2422680919964763,0.5243437926616288,-0.7631071533008098,-0.7205498782458978,1.1120763953953476,-1.9555686514133757,6.108171952933802,backhand
1761072585647682816,18.61668300628662,-1.4313197135925293,-4.493716716766357,-3.6813809871673584,0.6328474283218384,0.6887337565422058,-0.353765457868576,-0.6548658609390259,0.5720999836921692,-0.2534122467041015,0.2892231730829827,0.2129109033264129,0.527054286814385,-0.770216024428486,-0.7597411259687799,1.0610650785502085,-1.9630125749646272,5.982869882066743,backhand
1761072585657729024,18.626729011535645,-1.7297887802124023,-4.285331726074219,-3.6724796295166016,0.5909022688865662,0.7171297669410706,-0.3695393204689026,-0.7040157318115234,0.6056698560714722,-0.296171098947525,0.2879561612953104,0.1839410103191679,0.53046775792194,-0.7757904601750353,-0.7996751926169128,1.0119227573488934,-1.9707483870946672,5.902825074137073,backhand
1761072585667774976,18.636775016784668,-1.7889937162399292,-4.101536273956299,-3.642567634582519,0.5482542514801025,0.7447502613067627,-0.380478948354721,-0.6419432759284973,0.52641361951828,-0.3541096150875091,0.286358060416656,0.1552478057815252,0.5344704377513743,-0.7798964324589127,-0.8401605240598377,0.9641202806302224,-1.9786266526006415,5.76986978153176,backhand
1761072585677819648,18.646819829940796,-1.671476125717163,-4.071613311767578,-3.4695723056793213,0.5053220391273499,0.7703762054443359,-0.3888061940670013,-0.4680142998695373,0.4431705474853515,-0.354754626750946,0.2842951911419976,0.1273115822282387,0.5379485685235516,-0.7833131376953204,-0.8794310092529,0.9149802057676252,-1.9900947587905455,5.604444609748795,backhand
1761072585687865856,18.65686583518982,-1.3588274717330933,-4.103085994720459,-3.1678643226623535,0.463105708360672,0.792565107345581,-0.3967036306858063,-0.2930312752723694,0.4949104785919189,-0.3438511788845062,0.2831398291090028,0.1000273274289134,0.540039548470011,-0.7862466052249565,-0.9150040926942908,0.8624739960807543,-2.0047253385074835,5.358833002138128,backhand
1761072585697911808,18.666911840438843,-0.9599761366844176,-4.088449001312256,-2.915616035461426,0.4221507012844085,0.8107381463050842,-0.4055764675140381,-0.2324382066726684,0.5791237950325012,-0.3627187609672546,0.2825070441769363,0.0741047393812028,0.540111336612297,-0.7892894682943915,-0.9454119428880786,0.805419274256964,-2.0251759231935664,5.112512717399784,backhand
1761072585707957760,18.676957845687863,-0.6870799660682678,-4.0481791496276855,-2.72374963760376,0.3821909725666046,0.8254636526107788,-0.4153789281845093,-0.257404625415802,0.6334595680236816,-0.3804889619350433,0.2823631610854784,0.0493032053152047,0.5384047945407793,-0.7924395406009054,-0.971023168751994,0.7438108014563218,-2.0510537645643003,4.92733654174335,backhand
1761072585718002688,18.687002897262573,-0.6814588308334351,-3.998280525207519,-2.5508317947387695,0.3432075083255768,0.8379014134407043,-0.4244169294834137,-0.2782355844974518,0.6362958550453186,-0.3937745690345764,0.2828361400288371,0.0252043808342842,0.5358696452935157,-0.7951176771865208,-0.99342701816023,0.6799970474595726,-2.079195657903845,4.791385618109317,backhand
1761072585728048896,18.697048902511597,-0.7813735008239746,-3.9417855739593506,-2.5130624771118164,0.3047484755516052,0.8492681980133057,-0.4311285316944122,-0.2615966200828552,0.5618492960929871,-0.3993768095970154,0.283465932932769,0.0014997649106003,0.533323062077197,-0.7970014354773158,-1.014597711449175,0.6153166528824343,-2.108552103005732,4.7395887029078105,backhand
1761072585738094848,18.70709490776062,-0.7735257148742676,-3.8729536533355713,-2.493080139160156,0.2661788761615753,0.8598965406417847,-0.435576468706131,-0.2072646617889404,0.3987705707550049,-0.4126443862915039,0.2838105226275429,-0.0219871635452146,0.5307808617428165,-0.7982730947902629,-1.0350669594312831,0.5485380975332673,-2.1407533086360613,4.6704989682829305,backhand
1761072585748140800,18.717140913009644,-0.6793265342712402,-3.751279830932617,-2.406879186630249,0.2281268388032913,0.8691961765289307,-0.4386981725692749,-0.1346667557954788,0.2457024455070495,-0.4850383102893829,0.2840061847775146,-0.0448617810582412,0.5278620346036602,-0.7991805535968771,-1.0535743880976431,0.4795260785012018,-2.176214433593101,4.508508880900725,backhand
1761072585758186752,18.727186918258667,-0.5213712453842163,-3.583745241165161,-2.295271635055542,0.1912464797496795,0.8768304586410522,-0.4411271512508392,-0.0964283645153045,0.1931158304214477,-0.5405928492546082,0.284084509732577,-0.0666933199339648,0.5243933948167261,-0.7999122311812029,-1.0692298138767993,0.4090822247350862,-2.214649260535799,4.287578548292494,backhand
1761072585768231936,18.737231969833378,-0.3609601855278015,-3.3786520957946777,-2.092466354370117,0.1563548743724823,0.8826104402542114,-0.443342000246048,-0.0953502506017685,0.198856234550476,-0.5877401828765869,0.2842278894789963,-0.0870840490966254,0.5203319794819994,-0.8005533170003306,-1.0813864137910854,0.3390543626624199,-2.254466110292252,3.9904884017028546,backhand
1761072585778277888,18.747277975082397,-0.2363724410533905,-3.1825733184814453,-1.9441752433776855,0.1238289102911949,0.8867591619491577,-0.4453363716602325,-0.1164436563849449,0.2503562569618225,-0.5932072401046753,0.2845269949380453,-0.1059347616906512,0.5158581600509429,-0.8010695958856314,-1.090286054989566,0.2712060850079731,-2.2939112220170443,3.736905435699734,backhand
1761072585788323840,18.75732398033142,-0.1620647013187408,-3.000213861465454,-1.834903597831726,0.0930853709578514,0.8896757364273071,-0.4470037519931793,-0.129309743642807,0.2617068290710449,-0.5999933481216431,0.2847753953793595,-0.1235308720238468,0.5111147095552863,-0.8015017228929713,-1.0966345184458384,0.2053087488781648,-2.333134061181399,3.5205708905344877,backhand
1761072585798369792,18.767369985580444,-0.2394521683454513,-2.8387839794158936,-1.69334077835083,0.0641705095767974,0.8919641971588135,-0.4475286900997162,-0.0958019718527793,0.2418553233146667,-0.5961571931838989,0.2849906930858631,-0.14007539212974,0.5065713555665003,-0.8015888022228622,-1.1016713182384452,0.1424178419910522,-2.3708298098953127,3.314126553760352,backhand
1761072585808416000,18.777415990829468,-0.2320080995559692,-2.6881356239318848,-1.5501956939697266,0.0372198298573493,0.8938784003257751,-0.4467617571353912,-0.0354650691151618,0.2499814629554748,-0.6214450597763062,0.2852878688410923,-0.1556514136570609,0.502386066343024,-0.8012438374560481,-1.1059230846335448,0.0831182963525956,-2.4061549322428277,3.1117531361779838,backhand
1761072585818460672,18.787460803985596,-0.1639491468667984,-2.5179760456085205,-1.437011957168579,0.0121263777837157,0.8951389789581299,-0.4456222057342529,-0.0080675445497035,0.2438990473747253,-0.6520798206329346,0.2856694407649214,-0.1701714503097611,0.4982274332803933,-0.8007522007294748,-1.1087428984662264,0.0272055247561269,-2.439394728771004,2.903805443562317,backhand
1761072585828506624,18.79750680923462,-0.0568202026188373,-2.314171552658081,-1.374659538269043,-0.0112981656566262,0.895658016204834,-0.4445999562740326,-0.0224085077643394,0.265535831451416,-0.6558029055595398,0.2859480937061491,-0.1835483774521175,0.4939736995644936,-0.8003335271703645,-1.1099086089897037,-0.025406512142364,-2.4710418189432524,2.6922680692515777,backhand
1761072585838552832,18.807552814483643,0.0146321430802345,-2.129366636276245,-1.2568646669387815,-0.0331359058618545,0.8954463601112366,-0.4439346492290497,-0.0514435842633247,0.330719530582428,-0.6790664792060852,0.2860899633695609,-0.1957771210054719,0.4895957393762362,-0.8000749984184057,-1.1094328673165148,-0.0745032453926419,-2.500947916330124,2.4726757090845264,backhand
1761072585848598784,18.817598819732662,0.0861329957842826,-1.9564300775527952,-1.1201356649398804,-0.0528789535164833,0.8947165012359619,-0.4434930086135864,-0.0849536657333374,0.444989800453186,-0.7093694806098938,0.2863894072958046,-0.2068119010283045,0.4852652158399066,-0.7998296648211835,-1.107796063524688,-0.1186726324455194,-2.5273630612043116,2.2560455334913607,backhand
1761072585858643712,18.827643871307373,0.0796854794025421,-1.8134706020355225,-1.0829648971557615,-0.0711322650313377,0.8936424851417542,-0.4431064128875732,-0.1262096464633941,0.5232276320457458,-0.6988308429718018,0.2866478146138263,-0.2169203776057843,0.4810325777550813,-0.7996163047284774,-1.1053971377573426,-0.1591728567592273,-2.551481246764548,2.113726181071305,backhand
1761072585868689664,18.837689876556396,0.083897665143013,-1.690962791442871,-1.0638129711151123,-0.0885815769433975,0.892410397529602,-0.4424442648887634,-0.1305346190929412,0.4876859784126282,-0.6707911491394043,0.2866302053905781,-0.2264248918603762,0.4769797022387959,-0.7994155496141235,-1.1026591949656124,-0.1975970675618012,-2.574806306350241,1.9995229475486094,backhand
1761072585878735872,18.84773588180542,0.0398724190890789,-1.609416365623474,-0.974605143070221,-0.1051003783941268,0.8911237716674805,-0.441420704126358,-0.0686361789703369,0.3583268523216247,-0.6510323286056519,0.2865235302336311,-0.2354047037395199,0.4731535445134406,-0.7991336280572178,-1.0998157961901602,-0.2337436439621634,-2.596750897289439,1.8819314633215558,backhand
1761072585888781824,18.857781887054443,0.0582067184150218,-1.543126940727234,-0.827713131904602,-0.1201604455709457,0.8899139165878296,-0.4400165677070617,0.0075048357248306,0.2833800911903381,-0.6540080308914185,0.2866891841849008,-0.2438118246477595,0.4696248690730936,-0.7986347454246799,-1.0971563759445493,-0.2665818661399987,-2.615826483853661,1.7520667241843741,backhand
1761072585898826752,18.86782693862915,0.127820149064064,-1.4616186618804932,-0.7055091857910156,-0.1336295157670974,0.8885301351547241,-0.4389276504516601,0.0348288416862487,0.2487226724624633,-0.6685705184936523,0.2872662595623925,-0.2515015772125923,0.4661363815795755,-0.7980864895975333,-1.0941315683194794,-0.2955301470654684,-2.6314084561046753,1.6280080818287066,backhand
1761072585908872960,18.877872943878177,0.231881096959114,-1.3431730270385742,-0.6280214190483093,-0.1457475870847702,0.8867934942245483,-0.4385828971862793,0.0257371962070465,0.2209945917129516,-0.6660771369934082,0.2881126024799508,-0.2584177209728839,0.4625244116820816,-0.7976732516472604,-1.090360336185898,-0.320833583932406,-2.644016523240396,1.500764314099446,backhand
1761072585918918912,18.887918949127197,0.2526268661022186,-1.2096635103225708,-0.5668448805809021,-0.1567056626081466,0.8847688436508179,-0.4388936460018158,0.029813528060913,0.1769225597381591,-0.6419932246208191,0.2890076493401863,-0.2645569514468029,0.4588712124943441,-0.7974468990184084,-1.0859977068046565,-0.3429389155262854,-2.654471607234933,1.3595658352295155,backhand
1761072585928964864,18.89796495437622,0.2088181674480438,-1.05489182472229,-0.5330207347869873,-0.1665931195020675,0.8828727602958679,-0.4390697777271271,0.0566688328981399,0.1407020092010498,-0.6110552549362183,0.28971538241642,-0.2700337740872002,0.4555731167155706,-0.7972450925957527,-1.081944718381577,-0.3626426098721418,-2.6638693234692328,1.2002136862388888,backhand
1761072585939010816,18.908010959625244,0.2398373335599899,-0.9184455275535583,-0.5093463063240051,-0.1756917536258697,0.8809321522712708,-0.4394212663173675,0.087358608841896,0.0766178965568542,-0.6063703298568726,0.2901454414018398,-0.2748741441090261,0.452474938311263,-0.7971990861418753,-1.077828364007587,-0.3803557849814497,-2.672694875186336,1.0772640314325024,backhand
1761072585949056000,18.91805601119995,0.2755173444747925,-0.8258882164955139,-0.4646226465702057,-0.1840166598558426,0.8788180947303772,-0.4402460753917694,0.1242785155773162,0.0310786962509155,-0.5494542121887207,0.2904848292549064,-0.2791231916737338,0.4494076159296784,-0.7973340595683274,-1.073379565405356,-0.3959146988021886,-2.680390582576858,0.9868512334483271,backhand
1761072585959101952,18.928102016448975,0.3517149090766907,-0.758195698261261,-0.4267388880252838,-0.1915284246206283,0.8765552043914795,-0.4415517151355743,0.1694336831569671,0.037644624710083,-0.4706645011901855,0.290908846228237,-0.2828608614304549,0.4463338233997587,-0.7975888427432969,-1.0686576285056673,-0.4092688031160553,-2.686507814815199,0.9384402872222407,backhand
1761072585969147904,18.938148021698,0.4492165744304657,-0.7214572429656982,-0.364718496799469,-0.1983519047498703,0.8739603757858276,-0.443677544593811,0.2181883305311203,0.0266743898391723,-0.4198936223983764,0.291528352822014,-0.2861267524364378,0.4430493233187584,-0.7980288086449016,-1.063292513639882,-0.420408989871096,-2.6907526696542887,0.9248327773594386,backhand
1761072585979193600,18.94819378852844,0.4939581751823425,-0.6968376040458679,-0.2719787061214447,-0.2043625265359878,0.8711687326431274,-0.4464313685894012,0.2550369799137115,-0.0054919123649597,-0.3873088657855987,0.2925043284323304,-0.2889947743743271,0.4396206764412745,-0.7985342193879658,-1.057577746445693,-0.4292959878028805,-2.692740746892407,0.896409360630148,backhand
1761072585989238784,18.95823884010315,0.5084584951400757,-0.6539454460144043,-0.189789742231369,-0.2094403207302093,0.8684121370315552,-0.4494388103485107,0.2474499493837356,-0.0266457796096801,-0.3474667072296142,0.2937887501693716,-0.2914737271459749,0.4362609962454964,-0.7990041937145909,-1.0519909304031825,-0.436082911480347,-2.692746148077963,0.8498204715699299,backhand
1761072585999284736,18.968284845352173,0.5008463859558105,-0.6043845415115356,-0.1284938901662826,-0.2136682868003845,0.865776002407074,-0.4525238573551178,0.2068018168210983,-0.0233840942382812,-0.3033812642097473,0.2952713563062796,-0.2935924966606907,0.4330606378163802,-0.7994228304786885,-1.0466990210120937,-0.4411369504170924,-2.6912909229887205,0.795385727903871,backhand
1761072586009330688,18.978330850601196,0.4495093822479248,-0.5793164968490601,-0.0958811789751052,-0.2173507511615753,0.8633354902267456,-0.4554235637187958,0.1714828163385391,-0.0054863691329956,-0.2509515285491943,0.2968133264802269,-0.2954998991437997,0.4300790881666087,-0.7997585817149182,-1.0418425506138458,-0.4452822641266862,-2.6892049187586045,0.7394994852817912,backhand
1761072586019376640,18.98837685585022,0.3531801998615265,-0.5508646368980408,-0.0703646317124366,-0.2206592708826065,0.8612914085388184,-0.4576971232891083,0.1589679718017578,-0.0173125267028808,-0.2058923244476318,0.2983054100089242,-0.2973431801929982,0.4274791985380158,-0.7999140627538568,-1.037805799672698,-0.4492315045019738,-2.687194021133912,0.6581331804088477,backhand
1761072586029422848,18.998422861099243,0.2473427206277847,-0.515136182308197,-0.0729350298643112,-0.2237422615289688,0.8597455620765686,-0.4591044187545776,0.1507137417793274,-0.0647779703140258,-0.1676655709743499,0.2996131167703881,-0.299193621247441,0.4253598106767312,-0.7998650234684165,-1.034771221585992,-0.4534724982873918,-2.685879662283864,0.5760757123433745,backhand
1761072586039467776,19.00846791267395,0.2215697169303894,-0.4719554483890533,-0.0488954745233058,-0.2265702486038208,0.8585318922996521,-0.4599880576133728,0.1310349553823471,-0.1086539626121521,-0.1618228554725647,0.3007619008054262,-0.3009642200966059,0.4235876574972915,-0.7997101997110325,-1.0323996059666345,-0.4576753450179021,-2.684993278993832,0.5236657828745205,backhand
