time,seconds_elapsed,rotationRateX,rotationRateY,rotationRateZ,gravityX,gravityY,gravityZ,accelerationX,accelerationY,accelerationZ,quaternionW,quaternionX,quaternionY,quaternionZ,pitch,roll,yaw,omega_mag,label
1761072573743406848,6.712406873703003,0.181603193283081,-0.4854263067245483,0.2917690873146057,-0.3742287158966064,0.8253272771835327,-0.4228331744670868,0.0426704883575439,0.0490928888320922,0.0287901759147644,0.2797279316614792,-0.3715460056381705,0.3879909556449058,-0.7957191390470499,-0.9707815119281666,-0.7244940639834133,-2.8600975191182285,0.5947668613694321,backhand
1761072573753452800,6.722452878952026,0.2206528782844543,-0.5009653568267822,0.3097947537899017,-0.3739093840122223,0.8255680203437805,-0.4226453304290771,0.0388111472129821,0.0591670274734497,0.031486302614212,0.282265094730427,-0.3726850364752657,0.3870183356964041,-0.7947634836918139,-0.9712080754363018,-0.7242908933185546,-2.85375088483881,0.6289886890171756,backhand
1761072573763497728,6.732497930526733,0.2375602275133133,-0.5187808275222778,0.3276129066944122,-0.3735067546367645,0.8257489800453186,-0.4226478934288025,0.0347006320953369,0.0563920736312866,0.0282845199108123,0.2849469336089151,-0.3738007593782372,0.3859391676646618,-0.7938067165747903,-0.9715287793318326,-0.7237532334024647,-2.8468359790787923,0.6579503213264951,backhand
1761072573773543936,6.742543935775757,0.250048816204071,-0.5349304676055908,0.3379539549350738,-0.3730581402778625,0.8259307742118835,-0.422689139842987,0.0304067730903625,0.0639312863349914,0.031423270702362,0.2876764676044667,-0.3749056805119075,0.3848391440254445,-0.7928347110131232,-0.9718511378706076,-0.7231085632051768,-2.839740872793728,0.6803586490330311,backhand
1761072573783589888,6.75258994102478,0.2437597811222076,-0.5554245710372925,0.3325589299201965,-0.3726723492145538,0.826094388961792,-0.4227096140384674,0.0297158062458038,0.0747692584991455,0.0416976809501647,0.2905025604345335,-0.3760909531594021,0.3836675511881269,-0.7918100040265773,-0.9721414473191708,-0.7225712283893924,-2.8324354670890948,0.6917446977566023,backhand
1761072573793635584,6.762635707855225,0.2465005964040756,-0.5923803448677063,0.353613793849945,-0.3723474740982055,0.8263041973114014,-0.4225856959819793,0.0348078310489654,0.0884143710136413,0.0530330836772918,0.2934510550674651,-0.3774033553901974,0.3824576606149646,-0.7906827961560686,-0.9725138979424662,-0.7222840599129075,-2.8249568967179015,0.7326115834561306,backhand
1761072573803681536,6.772681713104248,0.2825086712837219,-0.6317314505577087,0.3778672218322754,-0.3719919919967651,0.8265454769134521,-0.4224268198013305,0.0338725447654724,0.0999833941459655,0.0369288027286529,0.296611218634875,-0.3788122493833015,0.3811664522963535,-0.7894524219171936,-0.9729424110454096,-0.7219968080302677,-2.8169477173359176,0.78846649409438,backhand
1761072573813726720,6.782726764678955,0.3547189235687256,-0.6599132418632507,0.3978124260902405,-0.3716069757938385,0.8266036510467529,-0.4226518869400024,0.0255681574344635,0.1027328968048095,0.0318437814712524,0.3000274783498382,-0.3802168983431642,0.3796171346546545,-0.7882318389248383,-0.9730457732457362,-0.7212190968184851,-2.807942197210445,0.8482722015226148,backhand
1761072573823772672,6.7927727699279785,0.3980661332607269,-0.6874285340309143,0.4581426084041595,-0.3710293471813202,0.8265548348426819,-0.4232545495033264,0.0230221152305603,0.1124557256698608,0.0478425621986389,0.3037352285701581,-0.3815583139550332,0.3778703132302057,-0.7870020980688418,-0.9729590728950324,-0.7197413398566777,-2.7977907977506247,0.9170110607208649,backhand
1761072573833818624,6.802818775177002,0.4273301959037781,-0.7166993021965027,0.5403681993484497,-0.3699336349964142,0.8266332745552063,-0.42405965924263,0.0290217697620391,0.1414300799369812,0.0610530972480773,0.307842626845257,-0.3827896180985211,0.3760881200806909,-0.785660740476526,-0.973098381913696,-0.7173340896881978,-2.7862305006425365,0.9941160782158194,backhand
1761072573843864576,6.812864780426025,0.473846286535263,-0.7304760813713074,0.5959446430206299,-0.3683418929576874,0.8268088698387146,-0.4251013994216919,0.0345864593982696,0.1630744934082031,0.0730659067630767,0.3122849032453159,-0.3838797675050484,0.3742801383450825,-0.7842376884637151,-0.9734105477352136,-0.7139841229271097,-2.773400475541505,1.0551187735339682,backhand
1761072573853910784,6.822910785675049,0.5070605278015137,-0.7388952374458313,0.6467223167419434,-0.3663416504859924,0.8269911408424377,-0.4264732003211975,0.0411768555641174,0.1660661101341247,0.08786541223526,0.3170610136898714,-0.3848395107176549,0.3723733956625583,-0.782757250508484,-0.9737346672810112,-0.7096974628009458,-2.7592575550526965,1.1051363290321008,backhand
1761072573863956736,6.832956790924072,0.504197895526886,-0.7579711675643921,0.6919955015182495,-0.3639905452728271,0.8272718787193298,-0.4279393255710602,0.0599134266376495,0.1801285743713379,0.1125554740428924,0.3220474421889461,-0.3857068421996579,0.3704869313166058,-0.7811882303190241,-0.9742341312610088,-0.704822440690913,-2.744326026217965,1.1435005827869795,backhand
1761072573874001664,6.843001842498779,0.4912515878677368,-0.782532811164856,0.729914128780365,-0.3614247739315033,0.8277121186256409,-0.4292605817317962,0.080968290567398,0.2036598920822143,0.135315328836441,0.3272150053435726,-0.3866031743673763,0.3686565984116705,-0.779461685781043,-0.9750182099593342,-0.6998140483727924,-2.728919717490883,1.1774805130129942,backhand
1761072573884047872,6.853047847747803,0.5050012469291687,-0.7996098399162292,0.7575334906578064,-0.3586679100990295,0.8282525539398193,-0.4305289387702942,0.0943856835365295,0.2091925144195556,0.1454642415046692,0.3325043552000847,-0.3874844571765569,0.3668669061068386,-0.7776280863599269,-0.975982006130896,-0.6945926689413965,-2.713117138179354,1.2117174361042569,backhand
1761072573894093824,6.863093852996826,0.5262693762779236,-0.8098123073577881,0.7979927062988281,-0.3556956946849823,0.828813374042511,-0.4319130480289459,0.0879192054271698,0.2160779237747192,0.1567971110343933,0.337994463865657,-0.3883258314028656,0.3650294787867054,-0.7757037041775522,-0.9769836143259188,-0.6889279480859549,-2.696564119817454,1.2528159437292563,backhand
1761072573904139776,6.87313985824585,0.556804358959198,-0.8195594549179077,0.8389472961425781,-0.3524051308631897,0.8293757438659668,-0.4335280060768127,0.0776401162147522,0.2385563850402832,0.1722365021705627,0.3436659191625238,-0.3890363477171082,0.3631621077764431,-0.7737297901232316,-0.977989414043866,-0.6825438753653438,-2.6791689083167305,1.2982840059117435,backhand
1761072573914185728,6.883185863494873,0.6060831546783447,-0.8458865284919739,0.8869765400886536,-0.3488647043704986,0.829894483089447,-0.4353946149349212,0.068041980266571,0.253540575504303,0.1808475255966186,0.349702969386885,-0.3897251288707177,0.3611329677701661,-0.7716249391090486,-0.9789185235171224,-0.675509367773323,-2.6604648062235157,1.3673288529599221,backhand
1761072573924230912,6.89323091506958,0.6501928567886353,-0.8768018484115601,0.959044337272644,-0.3449637591838836,0.8303453922271729,-0.4376373887062073,0.065636396408081,0.2509991526603699,0.1811524331569671,0.3560893272591201,-0.3902944123822404,0.3589590155500421,-0.7694277550465146,-0.9797272441683396,-0.6675296098315266,-2.640342360605797,1.4530307199958368,backhand
1761072573934276864,6.9032769203186035,0.6438845992088318,-0.9234100580215454,1.0551716089248655,-0.3405534923076629,0.8309587240219116,-0.4399212896823883,0.0724566280841827,0.2652173638343811,0.199229210615158,0.3629241973992302,-0.3908340251287724,0.3567746005332572,-0.7669723407128463,-0.9808288094196196,-0.6587623620922499,-2.6187005434562156,1.5429389607611705,backhand
1761072573944322816,6.913322925567627,0.6361105442047119,-0.9683557152748108,1.1306211948394775,-0.335614949464798,0.8318414092063904,-0.4420433938503265,0.0798319280147552,0.2822179794311523,0.2119713723659515,0.3700927974757592,-0.3913521655578353,0.3547136599484696,-0.7642335362147415,-0.982417212661598,-0.6493855485719333,-2.59593955136805,1.618843322244019,backhand
1761072573954368768,6.92336893081665,0.6105775237083435,-1.0097829103469849,1.1917747259140017,-0.330316811800003,0.832956850528717,-0.4439297020435333,0.0898993909358978,0.2703298330307007,0.2287655174732208,0.3775052471454733,-0.3919090594151271,0.3527639921274359,-0.7612191189830537,-0.9844300364262746,-0.6396980550225498,-2.572393435519753,1.6771384665000184,backhand
1761072573964414720,6.933414936065674,0.6094115972518921,-1.0399292707443235,1.2610983848571775,-0.3246331512928009,0.8342708945274353,-0.4456515908241272,0.1015496850013732,0.2707400321960449,0.2412143647670745,0.3850995878756477,-0.3924464048673711,0.3509416193977912,-0.757973672196721,-0.9868091046468936,-0.6295632643012523,-2.5481248825203626,1.744478294306153,backhand
1761072573974460672,6.943460702896118,0.6153349876403809,-1.0571730136871338,1.3307377099990845,-0.3184602260589599,0.8357146978378296,-0.4473969936370849,0.1095063388347625,0.2901703119277954,0.2512147426605224,0.3930738625991498,-0.3929531337991546,0.3491265295360156,-0.7544477808210265,-0.9894329017314568,-0.6186060939682878,-2.522390871060338,1.8075161909914754,backhand
1761072573984505600,6.953505754470825,0.6226027607917786,-1.0519665479660034,1.4052116870880127,-0.3117436468601227,0.8372560739517212,-0.4492418169975281,0.1105107367038726,0.3118528127670288,0.2609788775444031,0.4012422952008687,-0.3932981039330065,0.3474128501357236,-0.7507500157493833,-0.992245720092203,-0.6066424288814838,-2.495563120525953,1.862495020480268,backhand
1761072573994551552,6.963551759719849,0.6555573344230652,-1.0577192306518557,1.4667413234710691,-0.3044236898422241,0.838830828666687,-0.4513193964958191,0.1067308187484741,0.3147488832473755,0.2738444209098816,0.4097737512418259,-0.3934912859363315,0.345694828248449,-0.7468234398528172,-0.9951319429427752,-0.5934194500904286,-2.467034664363545,1.923500844705895,backhand
1761072574004597760,6.973597764968872,0.6679236888885498,-1.0854827165603638,1.5398026704788208,-0.296627938747406,0.8403451442718506,-0.4536872804164886,0.1045044660568237,0.3055289983749389,0.284238338470459,0.4185324689241315,-0.3935037180950799,0.3439639361401085,-0.7427478550906924,-0.9979195948187805,-0.5790530514166156,-2.437179031485381,1.9988464288542687,backhand
1761072574014643712,6.9836437702178955,0.6476565599441528,-1.133623480796814,1.6222903728485107,-0.2883314788341522,0.8419808149337769,-0.4559969305992126,0.1115584373474121,0.3265066742897033,0.3019900023937225,0.4277175066655538,-0.3935441590982083,0.3422346056041127,-0.73827921366182,-1.000944350013112,-0.5638387702563272,-2.4056070314831484,2.082399402057525,backhand
1761072574024689664,6.993689775466919,0.6562303900718689,-1.1844823360443115,1.6903570890426636,-0.279620498418808,0.8437148332595825,-0.4582112431526184,0.1179994344711303,0.3435104489326477,0.3186543881893158,0.4371415777654002,-0.3935799662767597,0.3405718574960908,-0.7334935476110216,-1.0041665201221808,-0.5479175588363745,-2.3728449600159993,2.1658586790766505,backhand
1761072574034734848,7.003734827041626,0.6159470677375793,-1.2345739603042605,1.7492990493774414,-0.2706029713153839,0.8455251455307007,-0.460284024477005,0.1167943477630615,0.3324991464614868,0.3491084575653076,0.4468810942525705,-0.3937129230439479,0.3388924965023131,-0.7283127275350031,-1.0075479680635129,-0.5314781449624707,-2.338729575076568,2.2279162501917993,backhand
1761072574044780800,7.013780832290649,0.5894169211387634,-1.29278826713562,1.8138116598129272,-0.2612950205802917,0.8474942445755005,-0.4620374143123626,0.1069217920303344,0.331888198852539,0.3863537907600403,0.4567292264564774,-0.393926465891245,0.3373473425967345,-0.7227843780528398,-1.0112466649564762,-0.5146865409046592,-2.303867082970092,2.304045691352831,backhand
1761072574054826752,7.023826837539673,0.5562511682510376,-1.3403431177139282,1.8840090036392212,-0.2516660392284393,0.849600076675415,-0.4635125994682312,0.0891293883323669,0.3375946879386902,0.4080011248588562,0.4668500409026452,-0.3942780730027894,0.3358399969344419,-0.7168035783006605,-1.0152266065608364,-0.4974175523351767,-2.2676942936798525,2.378113740168327,backhand
1761072574064872704,7.033872842788696,0.5428869128227234,-1.3749583959579468,1.9479715824127195,-0.2416050881147384,0.8518081307411194,-0.4648117423057556,0.0611546486616134,0.3587936758995056,0.4221176505088806,0.4770591985990506,-0.3946070267731821,0.3344838215030895,-0.7105071831709449,-1.019427279052827,-0.4793549826897615,-2.230522275522593,2.4453691084613283,backhand
1761072574074918656,7.04391884803772,0.5589756965637207,-1.4215315580368042,2.0261759757995605,-0.2311142235994339,0.8539310097694397,-0.466248869895935,0.021031230688095,0.3580135703086853,0.4181989431381225,0.4876207965139861,-0.3949229553602176,0.3330336622029674,-0.7038113263891443,-1.0234931575068535,-0.4601924840899528,-2.191425418979773,2.537438646499801,backhand
1761072574084964864,7.053964853286743,0.5463566184043884,-1.4808855056762695,2.0944576263427734,-0.2202129364013672,0.8560100197792053,-0.4677103757858276,-0.0225390940904617,0.3694385290145874,0.42181196808815,0.4983547336702733,-0.3951978273269335,0.3316074351670784,-0.6967766166682472,-1.0275014799713558,-0.4400420108521037,-2.1509167105721305,2.6226475523679778,backhand
1761072574095009792,7.06400990486145,0.519818902015686,-1.5314087867736816,2.131774663925171,-0.209104910492897,0.858055055141449,-0.4690594673156738,-0.0659042745828628,0.3891069293022156,0.439030110836029,0.5092661060864159,-0.3955734127070187,0.3301392711044312,-0.6893314647018629,-1.0314703726622738,-0.4193525253589906,-2.1091483687401307,2.675796662837763,backhand
1761072574105055744,7.074055910110474,0.4904849529266357,-1.5772862434387207,2.184420108795166,-0.1978132724761963,0.8600814938545227,-0.4702443778514862,-0.0935533195734024,0.3852950930595398,0.4338369369506836,0.5201349760300152,-0.3959807296560317,0.3287507691336799,-0.6816023865596595,-1.035429351537353,-0.3981893808353892,-2.0667421833633854,2.7386307882767182,backhand
1761072574115101696,7.084101915359497,0.4531549513339996,-1.6565561294555664,2.255767822265625,-0.186257854104042,0.8621504902839661,-0.4711735844612121,-0.1012329906225204,0.3562332987785339,0.4364903569221496,0.5313352289765013,-0.3966150625191163,0.3272761936475564,-0.6732530399647144,-1.0394989842257272,-0.3764534909287374,-2.022484943613861,2.8351395182467347,backhand
1761072574125147904,7.0941479206085205,0.4271515905857086,-1.7448457479476929,2.3156800270080566,-0.174480453133583,0.8642098307609558,-0.4719087481498718,-0.1061591804027557,0.3320333957672119,0.4402925670146942,0.5426449861919685,-0.3973699467499277,0.3257955579777868,-0.6644477217775222,-1.0435777851104298,-0.3541454561368783,-1.9769731516518056,2.930754024641965,backhand
1761072574135193856,7.104193925857544,0.3915110528469085,-1.83092737197876,2.367093324661255,-0.1625750213861465,0.8662276864051819,-0.4724605679512024,-0.1162183284759521,0.3231796622276306,0.4485653042793274,0.5542104437731428,-0.3983577084869081,0.3241617683747697,-0.6550427901047575,-1.047602211860573,-0.3314115791670341,-1.9297833086017937,3.0180634111327445,backhand
1761072574145238528,7.114238739013672,0.3797638416290283,-1.9120664596557615,2.399852752685547,-0.1506876349449157,0.8681706190109253,-0.4728350639343261,-0.136971041560173,0.2931757569313049,0.4530901908874511,0.5657550585229486,-0.3995030461281453,0.3224589713897485,-0.6452431786688374,-1.051504102281402,-0.3085138663013244,-1.8818390260355031,3.0918460434054205,backhand
1761072574155284736,7.124284744262695,0.3888119757175445,-1.9763003587722776,2.435476541519165,-0.1387944370508194,0.8698694109916687,-0.4733532071113586,-0.1650843471288681,0.2532384991645813,0.4443462491035461,0.5774849332743793,-0.4007639923674126,0.3204865376382566,-0.6349706370399871,-1.0549375353720392,-0.2852208126197553,-1.8324450422334957,3.1604562716220213,backhand
1761072574165330688,7.134330749511719,0.3915009796619415,-2.03232741355896,2.4890904426574707,-0.1268451511859893,0.871271550655365,-0.4741267561912536,-0.1963512450456619,0.2568564414978027,0.452520340681076,0.5892213069163827,-0.4019834327426009,0.3183487790817155,-0.6244049821896182,-1.0577871252552795,-0.2614122103647697,-1.7821134514197512,3.2371590885695243,backhand
1761072574175376640,7.144376754760742,0.381999522447586,-2.0724740028381348,2.521259307861328,-0.114675298333168,0.8725460171699524,-0.4748823046684265,-0.2231237888336181,0.2704288959503174,0.479627788066864,0.6010165816199576,-0.4032543274635915,0.3161404693610729,-0.6133680327936696,-1.0603898245329288,-0.2369453382410115,-1.7304577658101812,3.286003746964919,backhand
1761072574185422592,7.154422760009766,0.4696891605854034,-2.129276990890503,2.5773909091949463,-0.1023753583431243,0.8732702732086182,-0.4763593077659607,-0.2427784502506256,0.251424491405487,0.4558973014354706,0.6128414279928014,-0.4042534446424387,0.3136869392006429,-0.6021668664796355,-1.061874375076702,-0.211692094278593,-1.677830903240484,3.3759994535408158,backhand
1761072574195468544,7.164468765258789,0.5087186098098755,-2.2161731719970703,2.6424813270568848,-0.0898718237876892,0.8734576106071472,-0.4785341918468475,-0.2533593773841858,0.2539532780647278,0.4398837089538574,0.6251820278987191,-0.4052109493054092,0.3107040235720559,-0.590266584891375,-1.0622589881897304,-0.1856440069703208,-1.62261883509256,3.4861046622398995,backhand
1761072574205513728,7.174513816833496,0.5211448669433594,-2.278048038482666,2.6866068840026855,-0.077298916876316,0.8731861710548401,-0.4812178909778595,-0.2755605578422546,0.2668589353561401,0.4511428773403168,0.6376058313324541,-0.4060350276384044,0.30745179416851,-0.5779858843717374,-1.0617018323668153,-0.1592712670558773,-1.566414272953401,3.5607515199950073,backhand
1761072574215559680,7.1845598220825195,0.4425802230834961,-2.3462302684783936,2.712824821472168,-0.0648231953382492,0.8727622628211975,-0.4838222861289978,-0.3080100417137146,0.256586492061615,0.4692043960094452,0.6499674959616194,-0.406993015551896,0.3040485813248544,-0.5652020666616728,-1.060832642241473,-0.1331882431728714,-1.509697389940459,3.6138749616698598,backhand
1761072574225605632,7.194605827331543,0.342054158449173,-2.4335429668426514,2.736710548400879,-0.0525679551064968,0.8724590539932251,-0.4858515858650207,-0.3312516212463379,0.2660449743270874,0.4784510731697082,0.6619891102428176,-0.4082342939283868,0.3006974809364088,-0.5519929079909625,-1.0602119268444337,-0.1077782879296457,-1.4532788535023444,3.678140432951187,backhand
1761072574235651840,7.204651832580566,0.2768267393112182,-2.521574020385742,2.750788927078247,-0.0406253859400749,0.8722472786903381,-0.4873747825622558,-0.344735324382782,0.2654632329940796,0.4784331619739532,0.6738449327359453,-0.4098647947697594,0.2971926175904355,-0.5381638914831476,-1.059778756714463,-0.0831632807562348,-1.3965629916461,3.741899023920647,backhand
1761072574245697792,7.21469783782959,0.2254663556814193,-2.581455707550049,2.765148162841797,-0.0289815869182348,0.8720017671585083,-0.4886440634727478,-0.3657633066177368,0.2618941068649292,0.4711880087852478,0.6853732383996146,-0.4116721029684634,0.2936052496202089,-0.524009211782322,-1.0592769912972402,-0.0592408198748745,-1.3401978840983435,3.7895636965295028,backhand
1761072574255743744,7.224743843078613,0.2079903185367584,-2.6184515953063965,2.780203104019165,-0.0174776259809732,0.8715981841087341,-0.4899093806743622,-0.3924802541732788,0.2529745697975158,0.4594070315361023,0.6968493561726322,-0.4136314740902576,0.2897487115596139,-0.5092697953826119,-1.0584530678266073,-0.0356600995079354,-1.283080270399736,3.8247977762445733,backhand
1761072574265788672,7.23478889465332,0.2290998697280883,-2.6686744689941406,2.79417085647583,-0.0061238845810294,0.8708564639091492,-0.4914993047714233,-0.4157816469669342,0.2546775937080383,0.4587081670761108,0.7080913544935606,-0.4154699159906843,0.2857185729508517,-0.4943241029049353,-1.0569420623548542,-0.0124589548724218,-1.2261842976146582,3.8706202276830854,backhand
1761072574275834880,7.244834899902344,0.254241943359375,-2.7318928241729736,2.826251983642578,0.0051087997853755,0.8696860074996948,-0.4935789108276367,-0.4241151511669159,0.2898293733596802,0.4692869186401367,0.7192612175061323,-0.4171753146445454,0.2813810585526972,-0.4790122423860286,-1.0545658139161036,0.0103501528832342,-1.169024844084446,3.938981802899646,backhand
1761072574285880832,7.254880905151367,0.2781648635864258,-2.814523220062256,2.87893009185791,0.0162418279796838,0.8680501580238342,-0.4962107241153717,-0.425101101398468,0.3052591681480407,0.4714609980583191,0.730306117794241,-0.4186680020900896,0.2767882497179338,-0.4634202693885686,-1.0512614111626304,0.0327200315570305,-1.1119025909126758,4.035734768466414,backhand
1761072574295926784,7.264926910400391,0.225135788321495,-2.880932092666626,2.9143264293670654,0.0272235851734876,0.8661360740661621,-0.4990662336349487,-0.4523639678955078,0.2956985831260681,0.4642151892185211,0.7413139151823681,-0.4201978537164618,0.2718467227084447,-0.4471987749573712,-1.047418935919153,0.0544950334812803,-1.054137780794729,4.104114323778887,backhand
1761072574305972736,7.274972915649414,0.1395902633666992,-2.9323325157165527,2.9313533306121826,0.0380390025675296,0.8642707467079163,-0.5015866160392761,-0.4999988079071045,0.3127006292343139,0.4723049998283386,0.7519038733578949,-0.4218658940778769,0.2669004888605925,-0.4306202836206696,-1.043698793783996,0.0756924673893957,-0.9966793212283958,4.148601182717674,backhand
1761072574316017664,7.285017728805542,0.0452218130230903,-2.990302801132202,2.94045090675354,0.0485790744423866,0.8625307679176331,-0.5036672353744507,-0.5410106778144836,0.3248165845870971,0.4723104834556579,0.7622128660093657,-0.4238647350598037,0.2617347151071127,-0.4133583565400883,-1.0402500336688607,0.0961533031486734,-0.9387472261606254,4.194068119363336,backhand
1761072574326063616,7.295063734054565,-0.0197489317506551,-3.0507235527038574,2.949040412902832,0.0587706379592418,0.8608899116516113,-0.5053854584693909,-0.5643858909606934,0.3265947699546814,0.4631644487380981,0.7720449612850718,-0.4260607897283203,0.2564750718326407,-0.3957767802979737,-1.037016195421315,0.1157687545546393,-0.8813023554974029,4.24312898369369,backhand
1761072574336109568,7.305109739303589,-0.0783708691596984,-3.1272387504577637,2.9695920944213867,0.0686319768428802,0.8592391014099121,-0.5069495439529419,-0.5791758298873901,0.3128952980041504,0.4357367753982544,0.7815653811309965,-0.428436165927864,0.2509336193700759,-0.377664289361062,-1.0337804097539196,0.1345641364106078,-0.823689855879841,4.31326342839705,backhand
1761072574346155520,7.315155744552612,-0.1570600867271423,-3.1836493015289307,2.984405517578125,0.0782115086913108,0.8576459884643555,-0.508258044719696,-0.5980479121208191,0.3039140105247497,0.4088013172149658,0.7906176598702844,-0.4309431679603361,0.2452732451300141,-0.3592390278140969,-1.0306744276202249,0.1526838548636631,-0.7663844192945668,4.366573833031928,backhand
1761072574356201728,7.325201749801636,-0.2059195786714553,-3.2093515396118164,2.9578325748443604,0.0874981060624122,0.856109082698822,-0.5093340873718262,-0.6322521567344666,0.2869572639465332,0.3946643471717834,0.7992994530185118,-0.4336443138044448,0.2393440148026469,-0.3402753864113313,-1.0276931124486584,0.1701286035106336,-0.708773478633339,4.369337903904822,backhand
1761072574366247680,7.335247755050659,-0.2517184913158417,-3.239000082015991,2.9095423221588135,0.0961986854672432,0.8545781970024109,-0.5103352069854736,-0.6699291467666626,0.2518823742866516,0.3906452655792236,0.8074041009084633,-0.4363775051172073,0.2332532180653287,-0.3213508077305856,-1.024738073522636,0.186314746199248,-0.6525661264776257,4.361183354847996,backhand
1761072574376292608,7.345292806625366,-0.284584641456604,-3.283986806869507,2.892812490463257,0.1043309047818183,0.8530463576316833,-0.5112993121147156,-0.6938236951828003,0.2403984069824218,0.3750688433647156,0.8150557312431506,-0.4391916260735608,0.2268503331464172,-0.3022148044104389,-1.0217955201717606,0.2012872786686062,-0.5970588581720179,4.385649538075995,backhand
1761072574386338816,7.35533881187439,-0.2605583965778351,-3.32900333404541,2.8656539916992188,0.1119894534349441,0.8513341546058655,-0.5125313401222229,-0.711171567440033,0.2599633932113647,0.3781167864799499,0.8222746095566703,-0.4418615397357774,0.2202105735926227,-0.2830724650650301,-1.018523130870473,0.2151216230871396,-0.5426545123517774,4.4002416611198,backhand
1761072574396384768,7.365384817123413,-0.2311752587556839,-3.381303310394287,2.833862781524658,0.1190321817994117,0.8493187427520752,-0.5142848491668701,-0.7351973056793213,0.2689825892448425,0.3764217495918274,0.8292301818820028,-0.444365587473957,0.2130652140989486,-0.2636658185624441,-1.0146933970420189,0.2274468433041747,-0.4888999558241965,4.417853816238694,backhand
1761072574406430720,7.3754308223724365,-0.1970963776111602,-3.4224607944488525,2.813071012496948,0.1254803240299224,0.8469518423080444,-0.5166501998901367,-0.7630687952041626,0.2425258159637451,0.3387326598167419,0.835847168108916,-0.4465543649941761,0.2055823769982327,-0.2443045958952678,-1.010225658306442,0.2382596424839308,-0.4365436909115856,4.434574770252218,backhand
1761072574416476672,7.38547682762146,-0.1989014148712158,-3.4164602756500244,2.786167860031128,0.1314883530139923,0.8443580865859985,-0.5193942189216614,-0.8028140068054199,0.1910728216171264,0.3074954152107239,0.8420906452593037,-0.4485037797260084,0.1978566283483302,-0.2249011993128567,-1.005365891931273,0.247947871623705,-0.3851584051242945,4.412991494689611,backhand
1761072574426522624,7.395522832870483,-0.2292736917734146,-3.4037625789642334,2.754215955734253,0.137110561132431,0.841753363609314,-0.5221607685089111,-0.8417309522628784,0.1504951119422912,0.2858021855354309,0.8477984598278009,-0.4503018499846044,0.1901258877949095,-0.2057134620797367,-1.00052279837455,0.256786014420926,-0.335174546848724,4.384503580853573,backhand
1761072574436567808,7.40556788444519,-0.2588330209255218,-3.390120029449463,2.7128655910491943,0.1423575580120086,0.8392174243927002,-0.5248318314552307,-0.8641135692596436,0.1166236400604248,0.2602291703224182,0.8530478876263743,-0.4520922851439906,0.1821994652729688,-0.1863471008854069,-0.99584251813196,0.264871081523008,-0.2855590968665341,4.349660683535505,backhand
1761072574446612992,7.415613174438477,-0.2727254033088684,-3.401237726211548,2.649608373641968,0.1470029354095459,0.8367247581481934,-0.5275243520736694,-0.8714902400970459,0.0822053551673889,0.2473119497299194,0.857785223665272,-0.4537710539365537,0.1741541219411407,-0.1672327152826123,-0.9912747533276294,0.2717709668357335,-0.2375111245966212,4.320095108847527,backhand
1761072574456659200,7.4256591796875,-0.27620729804039,-3.410893678665161,2.5786232948303223,0.1508335918188095,0.8342952728271484,-0.5302834510803223,-0.8699498176574707,0.0661563277244567,0.227823793888092,0.8620810822237134,-0.455392444519033,0.1657588791050919,-0.1481816370817307,-0.9868532762880428,0.2771207532526858,-0.1907337535744615,4.284831881800068,backhand
1761072574466705152,7.435705184936523,-0.245060846209526,-3.4096744060516357,2.505775451660156,0.1538977921009063,0.8318026661872864,-0.5333103537559509,-0.8686347603797913,0.0320279598236084,0.2253879308700561,0.865958201148852,-0.4567735217632724,0.1571711853909033,-0.1295057091657286,-0.982347490523296,0.2809385999020266,-0.1459215993360576,4.2384956043118835,backhand
1761072574476751104,7.445751190185547,-0.2523908615112304,-3.4014642238616943,2.441936731338501,0.156234785914421,0.8292884230613708,-0.5365365743637085,-0.8717651963233948,-0.0111579298973083,0.222556471824646,0.8694518132521576,-0.4579673062896054,0.1483160782383229,-0.1110041957022583,-0.977833125370508,0.2833559530507342,-0.1024979707838974,4.194843860389273,backhand
1761072574486796032,7.455796241760254,-0.1885658055543899,-3.3865084648132324,2.359154462814331,0.1578718572854995,0.8267464637756348,-0.539969265460968,-0.8813368082046509,-0.0514168739318847,0.1979740262031555,0.8725526199631887,-0.4589105686083143,0.1393429318950504,-0.0929333752974895,-0.9732995538349064,0.284443965841627,-0.0609837070062668,4.131538021692748,backhand
1761072574496842240,7.465842247009277,-0.0920574143528938,-3.3744843006134033,2.264852523803711,0.1586344838142395,0.8238183259963989,-0.544204592704773,-0.8967174291610718,-0.1022148728370666,0.1733244657516479,0.875481031496283,-0.4593488054247758,0.1299860612314414,-0.0750695054058168,-0.9681143856984518,0.2836385486306453,-0.0212168794334348,4.065116950003248,backhand
1761072574506888192,7.475888252258301,-0.0878980904817581,-3.356006145477295,2.173290729522705,0.1584901213645935,0.8207696080207825,-0.5488333702087402,-0.9077882170677184,-0.1084588766098022,0.17868572473526,0.8781129228181515,-0.459427627982933,0.1204557101231018,-0.0577428397798486,-0.9627568887713512,0.2811283741358943,0.0162313367587764,3.9992119120923113,backhand
1761072574516934144,7.485934257507324,-0.0742831826210022,-3.326788902282715,2.038228750228882,0.1573619991540908,0.8179234862327576,-0.5533880591392517,-0.9124431610107422,-0.11194509267807,0.1714301109313964,0.8803483471207906,-0.4593870186038341,0.1107679491589794,-0.0409967648756357,-0.9577923821376564,0.2770480904185661,0.0514505768653797,3.902232544304776,backhand
1761072574526980096,7.495980262756348,-0.0694900229573249,-3.29746675491333,1.8699101209640503,0.1549345701932907,0.8152625560760498,-0.5579806566238403,-0.9187437891960144,-0.1652380228042602,0.1577730774879455,0.8822459047677855,-0.4591615382256685,0.1008977035922438,-0.0251530203396301,-0.9531824112313528,0.2708469230391884,0.0834591180490485,3.7913954849808333,backhand
1761072574537026048,7.506026268005371,-0.0594805665314197,-3.267395257949829,1.707966923713684,0.1511262208223343,0.8129303455352783,-0.5624101161956787,-0.9205201268196106,-0.2073700428009033,0.1313035488128662,0.8838027253787323,-0.4588907642615308,0.0906323158550837,-0.0098890086457919,-0.949166421491234,0.262510767716465,0.1130587109355983,3.687351450834042,backhand
1761072574547070976,7.516071081161499,0.0068891365081071,-3.2311549186706543,1.5592399835586548,0.1460806131362915,0.8107439279556274,-0.5668817162513733,-0.9260488748550416,-0.2415300607681274,0.0973992943763732,0.8851105067433752,-0.4583995345821613,0.0801811466403503,0.0045181786497231,-0.9454218259193132,0.252204546712671,0.1396886036774398,3.587706634464332,backhand
1761072574557116928,7.526117086410523,0.1013971716165542,-3.1899263858795166,1.438798904418945,0.1400345265865326,0.8084606528282166,-0.5716482400894165,-0.9312790632247924,-0.2698253989219665,0.071358323097229,0.8862753173891095,-0.4575460851583801,0.0694800189742312,0.0184436856975445,-0.941531933389289,0.2402354416605151,0.1643149112175026,3.5008647533287185,backhand
1761072574567162880,7.536163091659546,0.1706244498491287,-3.1462032794952393,1.3227345943450928,0.1330213397741317,0.805811882019043,-0.5770376920700073,-0.927515983581543,-0.2821455597877502,0.0225486159324646,0.8874226022637093,-0.4561096326048052,0.058695431452749,0.0316218296025987,-0.937045214097288,0.2265665121332931,0.186269843460411,3.417211521967903,backhand
1761072574577209088,7.546209096908569,0.2801077663898468,-3.0760698318481445,1.170957088470459,0.1249971762299537,0.8029537796974182,-0.5827872157096863,-0.9231234192848206,-0.3075466752052307,-0.0210946202278137,0.8885115375235869,-0.4542243677681964,0.0478185182386388,0.0440559417688578,-0.9322345075442916,0.2112806742367421,0.2056763450309343,3.3033023588883585,backhand
1761072574587255040,7.556255102157593,0.2817208468914032,-3.0205185413360596,1.0012863874435425,0.115848384797573,0.7999038696289062,-0.5888404250144958,-0.9189947247505188,-0.3635786771774292,-0.0149345993995666,0.8895760223410766,-0.4519013280546846,0.0369454148612228,0.0554511279108897,-0.9271349717079952,0.1942588519119011,0.2218471557056797,3.1946006516946475,backhand
1761072574597300992,7.566301107406616,0.2101412862539291,-2.997122049331665,0.8297570943832397,0.105335995554924,0.7974362373352051,-0.5941377878189087,-0.9026687741279602,-0.3874784111976623,-0.011529266834259,0.8903373717767079,-0.4497410793218503,0.025769274755846,0.0660928024911552,-0.9230343980046322,0.1754688742990219,0.2356315661739872,3.116953123557974,backhand
1761072574607346176,7.576346158981323,0.1667301654815673,-2.9576096534729004,0.6194165945053101,0.0933210998773574,0.7956103682518005,-0.5985777378082275,-0.8683912754058838,-0.420564591884613,0.0483763217926025,0.8908172744054895,-0.4477791088385723,0.0143182271195733,0.0757195343272457,-0.9200144789006324,0.1546596861684089,0.2463352637791789,3.0263725362133056,backhand
1761072574617392128,7.586392164230347,0.161941573023796,-2.8825995922088623,0.3983910381793976,0.079743281006813,0.7942169904708862,-0.6023789048194885,-0.8478707075119019,-0.4607667326927185,0.0061264634132385,0.8910989411532282,-0.445874831508137,0.0024878018321361,0.0844514181516877,-0.917717861132763,0.1316153237313073,0.254072705938988,2.9145018273073324,backhand
1761072574627438080,7.59643816947937,0.347595602273941,-2.777916431427002,0.187375470995903,0.0648683086037635,0.7925552129745483,-0.6063401699066162,-0.8495057821273804,-0.4860824346542358,-0.1144239902496337,0.8914683609925376,-0.4435563092858908,-0.009366093512669,0.0919471312194136,-0.914987891147194,0.1065779852251757,0.2580649377837899,2.8058424706036598,backhand
1761072574637484032,7.6064841747283936,0.6631329655647278,-2.6684815883636475,0.0143932159990072,0.0490075498819351,0.7893825769424438,-0.6119424104690552,-0.8486748933792114,-0.5416255593299866,-0.2001914381980896,0.8923481542633315,-0.4399829713786817,-0.0210663269681041,0.0984180643878155,-0.9098026459103928,0.0799146761015633,0.2587975853235671,2.749681160084063,backhand
1761072574647529984,7.616530179977417,0.8020573258399963,-2.5703790187835693,-0.1296968460083007,0.0323273912072181,0.7848244309425354,-0.6188744902610779,-0.8102967739105225,-0.5854378342628479,-0.2539892792701721,0.893670972938594,-0.4353226278192758,-0.0325111298739063,0.1038722663826207,-0.9024127250963816,0.0521883462482168,0.2567155063311322,2.69573098175632,backhand
1761072574657576192,7.62657618522644,0.788595974445343,-2.4810307025909424,-0.2820151746273041,0.0149386106058955,0.7798516154289246,-0.6257861852645874,-0.7510378956794739,-0.6093346476554871,-0.3277508020401001,0.8950488893845254,-0.4303312665523144,-0.0438394242881204,0.1085390190905703,-0.8944287409662202,0.0238672155403872,0.2528013337326013,2.618573947176282,backhand
1761072574667621120,7.6366212368011475,0.7430769801139832,-2.3671820163726807,-0.4376188814640045,-0.0031477131415158,0.7750152349472046,-0.6319348216056824,-0.6922563314437866,-0.6607116460800171,-0.2857593297958374,0.8963192864234927,-0.4254507865101051,-0.0549930197603929,0.1121573850373032,-0.8867392065333903,-0.0049810314496022,0.2466026225692681,2.5193698383578687,backhand
1761072574677667072,7.646667242050171,0.4795967638492584,-2.338928699493408,-0.5873371958732605,-0.0221767108887434,0.7709659934043884,-0.636489987373352,-0.6254520416259766,-0.7320866584777832,-0.1830137372016906,0.8972382105464499,-0.4211400799952419,-0.0663025807165856,0.1149281576445704,-0.880356556724858,-0.0348281091625976,0.2383892677910943,2.458773169461728,backhand
1761072574687713024,7.656713247299194,0.3876053392887115,-2.2217299938201904,-0.7725568413734436,-0.0420031547546386,0.768198549747467,-0.6388322710990906,-0.5788617134094238,-0.7521921396255493,-0.1708753108978271,0.8976457324206164,-0.417775030188093,-0.0777681783459025,0.1168253054414709,-0.8760225126906198,-0.0656553951808352,0.2280792161267205,2.3839392059442903,backhand
1761072574697759232,7.666759252548218,0.5389699935913086,-2.094733953475952,-1.016998291015625,-0.0627882853150367,0.7647644877433777,-0.6412432789802551,-0.5895097255706787,-0.7569062113761902,-0.1641613245010376,0.8982273890147486,-0.4140482530593965,-0.089120123658974,0.1175128579451064,-0.8706757180055987,-0.09760533647943,0.2147531305692574,2.3901222800864206,backhand
1761072574707805184,7.676805257797241,0.7600749135017395,-1.8856006860733032,-1.176377773284912,-0.0841396749019622,0.7597683668136597,-0.6447268128395081,-0.6365787386894226,-0.6890132427215576,-0.2852811217308044,0.8992685520154193,-0.4094264586784761,-0.100032800496582,0.1169599904774857,-0.8629567595227011,-0.1297709681458302,0.1988563372760696,2.3488440746319363,backhand
1761072574717849856,7.686850070953369,1.1115567684173584,-1.6541658639907837,-1.2352325916290283,-0.104829803109169,0.7526063919067383,-0.6500725746154785,-0.6724681854248047,-0.6140108108520508,-0.4196752905845642,0.9009356699996576,-0.4035805403603204,-0.1099384920469302,0.115547213566798,-0.8520114110706666,-0.1598822268810915,0.1824354615732644,2.3447009852920226,backhand
1761072574727896064,7.696896076202393,1.4439038038253784,-1.4252623319625854,-1.2504544258117676,-0.1242940202355384,0.7426751852035522,-0.6580155491828918,-0.6722910404205322,-0.6264185309410095,-0.5368848443031311,0.9033658349540736,-0.3961179024297684,-0.1186710506990322,0.1137448255368499,-0.8370564628713241,-0.1866925454508217,0.1672698156224826,2.3832471925180276,backhand
1761072574737942016,7.706942081451416,1.4829872846603394,-1.2329990863800049,-1.245399832725525,-0.142337679862976,0.7311384677886963,-0.6672155261039734,-0.6487389802932739,-0.6485121250152588,-0.5979669690132141,0.9061858693595608,-0.3878772480128772,-0.1262674832885719,0.1115120022627487,-0.8199891713583654,-0.2101802483571056,0.1532585766457992,2.2957697569292392,backhand
1761072574747987968,7.71698808670044,1.2535690069198608,-1.0689009428024292,-1.2763724327087402,-0.1592660695314407,0.7199059128761292,-0.6755514740943909,-0.6140645742416382,-0.6416741013526917,-0.5812234878540039,0.908799425905034,-0.3801172355188998,-0.1331734254737275,0.1089003383604566,-0.80366675138484,-0.2315293487214158,0.1397689224305848,2.0840132119573513,backhand
1761072574758033920,7.727034091949463,0.8389469981193542,-0.9993190169334412,-1.3777625560760498,-0.1757474243640899,0.7104960680007935,-0.6814015507698059,-0.5881991386413574,-0.6564189791679382,-0.4861093759536743,0.9108109865145172,-0.3738497106154047,-0.1397698305451674,0.1054706885200499,-0.7902029283960162,-0.2524192284094921,0.124839810273873,1.8975511124034328,backhand
1761072574768079872,7.737080097198486,0.6472273468971252,-0.9032284021377563,-1.56538724899292,-0.1928278058767318,0.7029047608375549,-0.6846475601196289,-0.5864232778549194,-0.7092067003250122,-0.3077840209007263,0.9121958980312777,-0.3690331962240193,-0.1465971172691487,0.1011057816408096,-0.7794731374960463,-0.2745337747162583,0.1074184286903828,1.9196775834262998,backhand
1761072574778125056,7.747125148773193,0.7427695393562317,-0.8103213310241699,-1.8877233266830444,-0.2107994854450225,0.6945631504058838,-0.6878558993339539,-0.5997779369354248,-0.8060743808746338,-0.0012310743331909,0.9136966214251456,-0.3640866440121628,-0.1533394125212269,0.0953233610197514,-0.7678124787384136,-0.29737170651243,0.0870334339328018,2.184451099523986,backhand
1761072574788171008,7.757171154022217,0.6649588942527771,-0.5037046670913696,-2.128782033920288,-0.2294204980134964,0.685269296169281,-0.6912106871604919,-0.7070876359939575,-0.7612733840942383,-0.3139315247535705,0.9153649898436124,-0.3589878249694225,-0.15975733890959,0.0878192076098573,-0.7549734040479271,-0.3204700037824329,0.0633019488670377,2.2863949069741434,backhand
1761072574798216960,7.76721715927124,0.7725809216499329,-0.2322014272212982,-2.276188850402832,-0.2469726502895355,0.6750661730766296,-0.6951907277107239,-0.8452666997909546,-0.5606253147125244,-0.3677517771720886,0.9172697983947996,-0.3537969232772218,-0.1650223740547004,0.0788127593975125,-0.7410544330573209,-0.3413520666888975,0.0377128248381656,2.4149191427456187,backhand
1761072574808263168,7.777263164520264,0.9741593599319458,-0.1239300891757011,-2.4160404205322266,-0.2639057636260986,0.6629689931869507,-0.700589656829834,-0.8855998516082764,-0.4611105322837829,-0.2588372230529785,0.919527532768168,-0.3477634443296912,-0.169604684460203,0.0690219062702633,-0.7247776550020977,-0.3602522871026176,0.0119825285907795,2.6079870473588733,backhand
1761072574818309120,7.787309169769287,1.164455771446228,-0.0899765491485595,-2.589219331741333,-0.2811685502529144,0.6485052704811096,-0.7073790431022644,-0.8569844961166382,-0.4838629961013794,-0.2427551746368408,0.9221007708575756,-0.340606814352352,-0.1740616658312331,0.0584783366990327,-0.7056191873906023,-0.378331491596552,-0.0140929483505875,2.8404418267083287,backhand
1761072574828355072,7.7973551750183105,1.100824236869812,-0.1122565492987632,-2.8275628089904785,-0.2992087602615356,0.6323135495185852,-0.7146003246307373,-0.8286751508712769,-0.5826157331466675,-0.1451714038848877,0.9246986798575412,-0.3327668210894097,-0.1787905663900867,0.0472493565214083,-0.6845359299948716,-0.3965290772810889,-0.040811365712737,3.036367397421892,backhand
1761072574838400000,7.807400226593018,0.8471775650978088,-0.1761041730642318,-3.1663033962249756,-0.3189870715141296,0.6161481142044067,-0.7201449275016785,-0.8197762966156006,-0.654066264629364,0.0143954753875732,0.9267563112607228,-0.3255490182748666,-0.1842427162617546,0.0345710412741782,-0.6638428508444252,-0.4169743905505479,-0.0710094591644716,3.2824076077662117,backhand
1761072574848446208,7.817446231842041,1.1309834718704224,-0.2213243842124939,-3.696640491485596,-0.3413357138633728,0.5977393984794617,-0.7253947854042053,-0.8325839042663574,-0.783423662185669,0.3880382180213928,0.9286038732921176,-0.3177838562628879,-0.1905676812112568,0.0198060191531414,-0.640678360357168,-0.4398126376734334,-0.1053911707275656,3.872112991634152,backhand
1761072574858492160,7.827492237091064,1.2459585666656494,-0.2306437790393829,-4.078464031219482,-0.3660869598388672,0.5749282240867615,-0.7317362427711487,-0.9594440460205078,-0.9223403334617616,0.4480906128883362,0.9305157393031862,-0.3083064943233984,-0.1976840601565137,0.0029342479777237,-0.6125163910545057,-0.4638868419315278,-0.1427888982228392,4.270770206485963,backhand
1761072574868538112,7.837538242340088,1.1053719520568848,-0.1311369091272354,-4.178397178649902,-0.3908439874649048,0.550558865070343,-0.7376489043235779,-1.1687568426132202,-0.7891453504562378,0.4147424697875976,0.9319882997109508,-0.2986464823321051,-0.2049043993271397,-0.0149122489444784,-0.5830335753266788,-0.4872422085685313,-0.1808898762390687,4.324123844650955,backhand
1761072574878584064,7.847584247589111,1.0880826711654663,0.0552323423326015,-4.371422290802002,-0.4142044484615326,0.5252619981765747,-0.7433266639709473,-1.361918568611145,-0.6396723985671997,0.5239357948303223,0.9330189701552072,-0.2891356697575764,-0.2115118033842626,-0.0337478410353595,-0.5530229740147304,-0.5083776916972688,-0.2195009234643621,4.505142323551027,backhand
1761072574888630272,7.857630252838135,0.990616738796234,0.1546236425638198,-4.777693271636963,-0.4368380308151245,0.4977416396141052,-0.749283492565155,-1.541631817817688,-0.6840057373046875,0.4990394115447998,0.9336651478349448,-0.2791390689800833,-0.217806410194304,-0.0539543323724581,-0.5209930047746455,-0.5278314395518048,-0.2592539773698092,4.881760234983698,backhand
1761072574898674944,7.867675065994263,0.3143209517002105,0.2907150387763977,-5.300230979919434,-0.4595691859722137,0.4698031842708587,-0.7537116408348083,-1.6841990947723389,-0.8159030079841614,0.4523047208786011,0.933241885774294,-0.2701621145420423,-0.2239567479951694,-0.076912241037,-0.4890677984133378,-0.5475515299637322,-0.3043760168521056,5.317495776674035,backhand
1761072574908720896,7.877721071243286,-0.5139495730400085,0.4317342042922973,-6.011213302612305,-0.4829526245594024,0.4441850185394287,-0.7546234130859375,-1.8120760917663576,-1.0062119960784912,0.547271728515625,0.9308727349606918,-0.26423974085536,-0.2299253098540432,-0.1038644093658526,-0.4602644220693221,-0.5693071959522584,-0.359123642139918,6.048572059278706,backhand
1761072574918766848,7.88776707649231,-0.6171976327896118,0.7233098745346069,-6.838556289672852,-0.5061240792274475,0.4166364669799804,-0.7551506161689758,-2.0075020790100098,-1.4041242599487305,0.7293633222579956,0.9269596426918392,-0.2590728955013901,-0.2351720941479222,-0.1353557342645049,-0.4297421968293449,-0.5904649868704411,-0.422540931383367,6.904343721132697,backhand
1761072574928813056,7.897813081741333,-1.221920609474182,0.7906798720359802,-7.362581729888916,-0.5291224122047424,0.386287122964859,-0.7555208802223206,-2.409186363220215,-1.6888078451156616,0.5415011048316956,0.921290301330018,-0.2540357434793119,-0.2402194821435842,-0.1702489299518553,-0.3966028443981076,-0.6109549062676211,-0.4920294891749943,7.505056586408569,backhand
1761072574938859008,7.9078590869903564,-1.4611176252365112,1.1874769926071167,-8.31091022491455,-0.5509448647499084,0.3547638356685638,-0.755382239818573,-2.9052319526672363,-1.4796417951583862,0.7026936411857605,0.913258705702255,-0.2501433895711039,-0.2444118722736242,-0.2089248196022125,-0.3626614697343962,-0.6301594922644599,-0.5691727525240295,8.521513661864144,backhand
1761072574948903936,7.917904138565064,-1.2059918642044067,1.5933160781860352,-9.520574569702148,-0.5701493620872498,0.3141897320747375,-0.7590879797935486,-3.5644025802612305,-1.3778188228607178,0.7817014455795288,0.9030700358032696,-0.2432979888794728,-0.2475118410812916,-0.2529990139404647,-0.3196030571083637,-0.6442033849536379,-0.6537764555517085,9.728022031162995,backhand
1761072574958950144,7.927950143814087,-2.322509765625,1.5501501560211182,-10.592398643493652,-0.5875933766365051,0.2688425481319427,-0.7631891965866089,-4.101661205291748,-1.3022288084030151,0.6879786252975464,0.8889544918542961,-0.2362698115502259,-0.2501639071994804,-0.3022491630227307,-0.2721911459546883,-0.6561274577758011,-0.7486389779844254,10.954265203121658,backhand
1761072574968996096,7.93799614906311,-3.3053629398345947,1.68122136592865,-11.394384384155272,-0.6024194359779358,0.2243786305189132,-0.7659928798675537,-4.5329718589782715,-1.1459484100341797,0.8308732509613037,0.8695311627892746,-0.232002315898812,-0.2513533134910964,-0.3562472501505973,-0.2263053647289685,-0.6664274779325425,-0.8563056906921827,11.982650997970714,backhand
1761072574979042048,7.948042154312134,-4.9302473068237305,1.8852980136871336,-12.07722282409668,-0.6130393743515015,0.1844493001699447,-0.768219530582428,-5.030759334564209,-0.9105998277664183,0.826477587223053,0.8444172477334975,-0.2314805750457941,-0.2496136466582632,-0.4136053639839582,-0.1855115126875146,-0.6735203652372016,-0.9760382163981952,13.180326181462167,backhand
1761072574989088000,7.958088159561157,-6.255925178527832,2.24219274520874,-12.74339485168457,-0.618424117565155,0.1500393152236938,-0.7713882327079773,-5.532637596130371,-0.2012172937393188,0.9156448841094972,0.8126931316830054,-0.2345201388923731,-0.2435286069862392,-0.4745777206852184,-0.150608032525187,-0.675778375426778,-1.110085123987132,14.372130687269234,backhand
1761072574999133952,7.968134164810181,-7.879045009613037,2.702813148498535,-13.072875022888184,-0.6172062754631042,0.1245104745030403,-0.7768871188163757,-6.073864459991455,0.4949963688850403,0.9547283053398132,0.774625488511796,-0.240817745049192,-0.2314373744501039,-0.5370278949020222,-0.1248344514545167,-0.6713541771052367,-1.255997586392794,15.501116428930478,backhand
1761072575009179136,7.978179216384888,-9.327752113342283,3.5780484676361084,-12.878604888916016,-0.6081939339637756,0.1119769141077995,-0.7858507633209229,-6.398962497711182,1.1454083919525146,1.3352434635162354,0.7305125014565729,-0.2499370049230957,-0.2112016120383777,-0.599397175381073,-0.1122122541976343,-0.6586415816993779,-1.4126382212965058,16.299320667117573,backhand
1761072575019225088,7.988225221633911,-10.044200897216797,5.039438724517822,-12.062178611755373,-0.5882294774055481,0.1143694221973419,-0.8005658984184265,-6.82401704788208,1.969111442565918,1.7110121250152588,0.6831539927641137,-0.2585097082736252,-0.1813554231801179,-0.6584706697530162,-0.1146202362716632,-0.633680570628799,-1.571623539160622,16.485692802661017,backhand
1761072575029271040,7.998271226882935,-10.12269687652588,6.6916093826293945,-11.10964298248291,-0.5546676516532898,0.1300815939903259,-0.8218410015106201,-6.8620805740356445,3.2743983268737793,2.0155513286590576,0.6352187500168576,-0.2622281859713617,-0.1425337896552464,-0.7123326045754563,-0.130451268217789,-0.5936869481729042,-1.7250760109916696,16.4520757165153,backhand
1761072575039317248,8.008317232131958,-9.48733615875244,8.282004356384277,-10.030474662780762,-0.5068503618240356,0.1559093743562698,-0.8478177785873413,-6.397446632385254,4.8478288650512695,2.1096434593200684,0.5881469238209537,-0.2581610501737003,-0.0971800835079287,-0.760258018332761,-0.1565480243402861,-0.5388218904531767,-1.868012928907175,16.10004861821934,backhand
1761072575049363200,8.018363237380981,-8.542816162109375,9.59580135345459,-8.729214668273926,-0.4453933835029602,0.1889875680208206,-0.8751619458198547,-5.371088981628418,5.999412536621094,1.93253493309021,0.5432791797872046,-0.2451325157393877,-0.0482605249572756,-0.8015164586938801,-0.1901310388529315,-0.4707635209827117,-1.9959602715366884,15.532491761445321,backhand
1761072575059409152,8.028409242630005,-7.65847110748291,10.467482566833496,-7.695811748504639,-0.3727074563503265,0.2277846485376358,-0.8995572924613953,-4.192234039306641,6.574446201324463,1.4948484897613523,0.5010074974690096,-0.2240928541892479,0.001938118713077,-0.8359246355949711,-0.2298019069463634,-0.3927926625760425,-2.1076324600601484,15.081309275375785,backhand
1761072575069454080,8.038454055786133,-6.546375274658203,10.8541259765625,-6.8052144050598145,-0.2932448983192444,0.2681155800819397,-0.9176717400550842,-3.1282944679260254,6.51841402053833,1.153206467628479,0.4612524077870424,-0.1965729149295063,0.050231589747472,-0.863760391696502,-0.2714364564086088,-0.3092975621588839,-2.2032028166367463,14.386730797876865,backhand
1761072575079500032,8.048500061035156,-6.095926284790039,11.273482322692873,-5.831664085388184,-0.2089201658964157,0.3102421164512634,-0.927416980266571,-2.260272264480591,5.967254161834717,0.923846423625946,0.4236869401218482,-0.1641858892419714,0.0966153100094332,-0.8855494911244934,-0.3154476995502718,-0.2215723969537847,-2.2844626616405357,14.080483903419982,backhand
1761072575089545984,8.05854606628418,-5.828044891357422,11.64058780670166,-5.451855659484863,-0.12075025588274,0.3573999404907226,-0.9261126518249512,-1.697258234024048,5.302680015563965,1.097972393035889,0.3874793547573397,-0.1284222686961271,0.1430083496559782,-0.9016186264488748,-0.3654824695622422,-0.129652581571419,-2.3537948635509194,14.113543916148979,backhand
1761072575099591936,8.068592071533203,-5.341668605804443,11.71867847442627,-5.220747470855713,-0.0333311036229133,0.4044184684753418,-0.9139664769172668,-1.3544557094573977,3.7771458625793457,1.3088945150375366,0.3502827549585929,-0.0899206998077495,0.1868984440776443,-0.9133920708957592,-0.4163428765013874,-0.036452474845313,-2.416895553801482,13.896656174622178,backhand
1761072575109637888,8.078638076782227,-6.035851955413818,11.639750480651855,-4.567928791046143,0.0510294511914253,0.4557349383831024,-0.8886516094207764,-1.1691477298736572,1.9382774829864504,1.5682780742645264,0.3137248256323313,-0.0508521840380066,0.2304088838084845,-0.9197296415764667,-0.4731977139210089,0.0573604697590391,-2.4703004641659048,13.884569619530026,backhand
1761072575119684096,8.08868408203125,-7.432448387145996,11.353422164916992,-3.3080406188964844,0.1321082562208175,0.5180105566978455,-0.8451109528541565,-1.1012396812438965,0.773539125919342,2.2454099655151367,0.2796375708959225,-0.0127159221984762,0.2779979043192816,-0.9188898010899356,-0.5445235159993255,0.1550656650349182,-2.5073863368213707,13.967269476124766,backhand
1761072575129729024,8.098729133605957,-8.639995574951172,10.87627124786377,-1.613526701927185,0.2093849033117294,0.5883419513702393,-0.7810324430465698,-1.0000953674316406,0.2166659235954284,2.578624725341797,0.2515938211100863,0.0238150654095717,0.3300251979629406,-0.9095145312293644,-0.6290068559629896,0.2619282680337092,-2.516197773827755,13.983785904043152,backhand
1761072575139774976,8.10877513885498,-8.636962890625,10.46359920501709,-0.2431012541055679,0.2836000323295593,0.655383288860321,-0.7000312209129333,-0.7795870304107666,0.3806273937225342,2.415424346923828,0.23029305520493,0.0601460986157864,0.3825791962872681,-0.8927377198217804,-0.7146899930861851,0.3849165370686201,-2.4914116245730815,13.569934948886651,backhand
1761072575149820928,8.118821144104004,-7.598086357116699,9.805476188659668,0.5177473425865173,0.3516190946102142,0.7088370323181152,-0.6114850640296936,-0.4910233914852142,0.8967384696006775,2.108677387237549,0.213443897668343,0.0963549824402732,0.430085081813292,-0.8718854169597973,-0.7878481448003911,0.5218529112172621,-2.4403580425543523,12.41556852855841,backhand
1761072575159867136,8.128867149353027,-5.9565629959106445,9.531153678894045,1.4160858392715454,0.4135434627532959,0.7439282536506653,-0.524931013584137,-0.0397184193134307,1.18618643283844,1.2561779022216797,0.1996924046585926,0.1331054571726294,0.468846930592445,-0.8500520280057211,-0.8389296440067577,0.6672608582791629,-2.3734439438716977,11.328231648370053,backhand
1761072575169913088,8.13891315460205,-4.87833833694458,9.495603561401367,2.513356924057007,0.47457155585289,0.7612842321395874,-0.4418464303016662,0.487495094537735,1.1671674251556396,0.4826636910438537,0.1893715468035363,0.1724385730412035,0.4993412901418776,-0.827684532396356,-0.8652913395747116,0.8210928100960653,-2.294981163144414,10.96729843456021,backhand
1761072575179958016,8.148958206176758,-4.993904113769531,9.221115112304688,3.822396993637085,0.5365319848060608,0.7647161483764648,-0.356851190328598,0.7799505591392517,1.0532770156860352,-0.0134491324424743,0.1832499696796747,0.2142556395403092,0.5250418361677616,-0.8030224900066609,-0.8706006689099086,0.9838742743994936,-2.204403125197769,11.161485608504988,backhand
1761072575190004224,8.159004211425781,-5.340122222900391,8.964699745178223,4.804874897003174,0.5981569886207581,0.7561913728713989,-0.265297532081604,0.5153378844261169,0.9863470196723938,-0.534873366355896,0.1827329017906457,0.2567479608391658,0.5490279737129969,-0.7741171701763669,-0.8574728890658686,1.1533400818294748,-2.1000133882880863,11.48780090585506,backhand
1761072575200050176,8.169050216674805,-5.016541004180908,8.69116497039795,5.564199447631836,0.6564314365386963,0.7348772287368774,-0.1704500168561935,-0.2130720615386963,1.1134504079818726,-0.8028165698051453,0.1852550518019561,0.2999559898596643,0.5699134975657096,-0.7422301337017564,-0.8254856224469062,1.3167453009438033,-1.999233910885464,11.47442145305493,backhand
1761072575210096128,8.179096221923828,-4.5111985206604,8.505742073059082,6.606958866119385,0.7111330032348633,0.6988626718521118,-0.0766870528459549,-0.7676515579223633,1.5244344472885132,-0.9601781964302064,0.1908791387129881,0.3440252414985434,0.5859207335283798,-0.7084551618268542,-0.7738061321612325,1.4633735996462278,-1.91375725585588,11.67692021745501,backhand
1761072575220142080,8.189142227172852,-3.6286425590515137,7.98827600479126,7.58929443359375,0.7617751359939575,0.6477294564247131,0.0120519548654556,-1.016093373298645,1.874502658843994,-1.2842077016830444,0.1988367909006307,0.3894288764105925,0.5952907923680669,-0.6741201485981841,-0.7046004273707858,1.5866158891958313,-1.8530347492447377,11.600732319550383,backhand
1761072575230188032,8.199188232421875,-2.465354681015014,7.2037811279296875,8.662551879882812,0.8081209659576416,0.5819417238235474,0.0910193026065826,-1.2339937686920166,1.933393478393555,-1.7143865823745728,0.2099762468125779,0.435112096678765,0.5968141365219681,-0.640624994583093,-0.6211142896188366,1.6829544414874085,-1.8185752019263275,11.533093310728905,backhand
1761072575240232960,8.209233045578003,-1.529160976409912,6.435269832611084,9.333673477172852,0.8488306403160095,0.5044066905975342,0.1583043932914734,-1.6635127067565918,1.740329027175903,-1.9079077243804932,0.222967133569914,0.4807529927100729,0.5899396205092168,-0.6092071846522649,-0.5286946865441956,1.7551751908754905,-1.809920682203802,11.439776732470314,backhand
1761072575250278912,8.219279050827026,-1.0744760036468506,5.873136043548584,9.653486251831056,0.8813696503639221,0.4192827045917511,0.2176911830902099,-2.3162145614624023,1.7507307529449463,-1.494149923324585,0.2372152718841876,0.524831720301742,0.5774056291767062,-0.5786910056115838,-0.4326550611821872,1.8129418648365443,-1.816315345061723,11.350683789214358,backhand
1761072575260324864,8.22932505607605,-0.4071635603904724,5.212552070617676,9.787205696105955,0.9043779373168944,0.3300746977329254,0.2704653441905975,-2.9673357009887695,1.8219486474990845,-1.0429415702819824,0.2515647289099966,0.5668482613855816,0.5602818261576912,-0.5490743396574351,-0.3363826975732611,1.8613926233856664,-1.834005996479213,11.096210010255724,backhand
1761072575270371072,8.239371061325073,0.3489539325237274,4.618690013885498,9.639952659606934,0.9178898334503174,0.2407044321298599,0.3154992163181305,-3.4145939350128174,1.7551757097244265,-0.6458672285079956,0.2650302650742404,0.6061746514358896,0.5387967152260208,-0.5215452024649044,-0.243091551174118,1.90186764172516,-1.8622690172387344,10.694987310457744,backhand
1761072575280417024,8.249417066574097,1.5998142957687378,4.313329219818115,9.159381866455078,0.9216855764389038,0.1570135205984115,0.3547430038452148,-3.532296657562256,1.3250421285629272,-0.1894445419311523,0.2749819062515251,0.6430088523888575,0.5137227982597308,-0.4970045298900939,-0.1576659285873948,1.938205051587342,-1.9017854689716152,10.249804433013777,backhand
1761072575290462976,8.25946307182312,2.5580406188964844,4.240023136138916,8.835103034973145,0.9164294004440308,0.0819065421819686,0.3917252123355865,-3.3645191192626953,0.5504939556121826,0.0054000616073608,0.2798900941264626,0.6782244928723534,0.485668763662309,-0.4751830977230592,-0.0819983992690256,1.9747379913377023,-1.9528507405409832,10.128198933744798,backhand
1761072575300507904,8.269508123397827,2.9325668811798096,3.874539613723755,8.461186408996582,0.9037988781929016,0.0140061127021908,0.4277282357215881,-3.0350396633148193,0.2197585552930832,0.094702124595642,0.281511035931852,0.7114608366717412,0.4557275460592198,-0.4548488128690686,-0.0140065702937637,2.012820739784455,-2.011050834763182,9.757237374313274,backhand
1761072575310554112,8.27955412864685,3.1680908203125,3.300581932067871,7.72968339920044,0.8865156173706055,-0.0452661104500293,0.4604793787002563,-2.738795280456543,0.2969751060009002,0.3891147971153259,0.2812623027404834,0.7410598886944981,0.4255231259101987,-0.4366370322284422,0.0452815846474695,2.0498637944939353,-2.0716054102921966,8.982129256914314,backhand
1761072575320600064,8.289600133895874,3.5828118324279785,2.851142644882202,7.102450847625732,0.8666753768920898,-0.094417966902256,0.489856481552124,-2.6375341415405273,0.3625606596469879,0.5833705067634583,0.2787842459406626,0.7670504839327358,0.3956789063803071,-0.4211308865750789,0.0945588154717448,2.0852445614203505,-2.133907997198384,8.450465256480928,backhand
1761072575330646016,8.299646139144897,3.7686116695404057,2.4081685543060303,6.414342880249023,0.8456107974052429,-0.1339191496372223,0.5167285799980164,-2.4994192123413086,0.3099292516708374,0.8121746778488159,0.2740122299653028,0.7900257098815792,0.3663654929979421,-0.4081092161582146,0.1343227019406361,2.119316832156252,-2.1977394565856203,7.819559085213555,backhand
1761072575340691968,8.309692144393921,4.011880397796631,1.9175909757614136,5.641538619995117,0.8252653479576111,-0.1637704521417617,0.5404782891273499,-2.2560055255889893,0.0564096271991729,0.9942355751991272,0.2668138013846055,0.8102448430833036,0.3372572219252352,-0.3982102383474896,0.1645115099047601,2.150618657094775,-2.263682259905889,7.183265098647193,backhand
1761072575350738176,8.319738149642944,4.0667924880981445,1.3962246179580688,5.0086188316345215,0.8068320751190186,-0.1846792548894882,0.561173141002655,-1.9786003828048704,-0.4439370930194855,0.9566947817802428,0.2584007627731878,0.8270835239015468,0.3106757519022955,-0.3906947568807087,0.185745490711413,2.1785136727633536,-2.325682144792674,6.601098918032331,backhand
1761072575360783104,8.329783201217651,3.44346022605896,0.9477856755256652,4.3991193771362305,0.791037380695343,-0.2009124755859375,0.5778353214263916,-1.7122259140014648,-0.7174530029296875,0.9867855310440063,0.2500372828852001,0.8412187222701649,0.2850766939369797,-0.3854394548950418,0.2022893016117101,2.201685774594203,-2.385109690617693,5.666389265615019,backhand
1761072575370829056,8.339829206466675,2.9241418838500977,0.5850937962532043,3.5987772941589355,0.7782305479049683,-0.2138895243406295,0.5904309749603271,-1.5049455165863037,-0.716683030128479,1.1074297428131104,0.2437317205092738,0.8517743081100846,0.2640000045625151,-0.3812865581665838,0.2155549096058507,2.219831979275169,-2.4331425088535994,4.6737713380368,backhand
1761072575380875008,8.349875211715698,2.440887451171875,0.3191968500614166,2.715963840484619,0.7686522006988525,-0.2223867624998092,0.5997649431228638,-1.3241331577301023,-0.6786752343177795,1.1160706281661987,0.2376575821862532,0.8599106999611776,0.2458374710023942,-0.3789939477742408,0.2242618615493856,2.23339751213361,-2.474856566940252,3.6655528588737365,backhand
1761072575390921216,8.359921216964722,2.2030937671661377,0.0592017509043216,1.8358118534088137,0.7623723149299622,-0.2259573638439178,0.6064085960388184,-1.104154109954834,-0.6570076942443848,1.1023162603378296,0.2323026159997308,0.865400105397544,0.2329955864611293,-0.3779300117590428,0.2279257091975663,2.242740257575514,-2.5052902523626694,2.8683326437762977,backhand
1761072575400967168,8.369967222213745,2.099134683609009,-0.2833121716976166,1.130894660949707,0.7597029805183411,-0.2238856852054596,0.6105130910873413,-0.8767227530479431,-0.803519070148468,1.008230686187744,0.2257389756049831,0.8693793855560161,0.2223421258380135,-0.379190260303476,0.2257995492877668,2.2477411574154695,-2.532255910861027,2.40115700043268,backhand
1761072575411012096,8.380012273788452,1.6221864223480225,-0.6377394795417786,0.5411581993103027,0.7606945037841797,-0.2187601923942566,0.6111361980438232,-0.7289410829544067,-0.8852131366729736,0.9632807970046996,0.2201394541545923,0.8712290986369865,0.215703403349162,-0.3820607289722905,0.2205437114183515,2.247602396919223,-2.5501337035401086,1.825117154951228,backhand
1761072575421058048,8.390058040618896,1.2964752912521362,-0.8961673378944397,-0.0911417305469513,0.7649176120758057,-0.21165432035923,0.6083616614341736,-0.6812077164649963,-0.8723148107528687,0.9322420358657836,0.215580760494496,0.8712921582059991,0.2122046617507959,-0.386450819216219,0.2132673199715772,2.2426830179446204,-2.5606151536684876,1.5786927799236974,backhand
1761072575431104000,8.40010404586792,1.060460329055786,-1.1310325860977173,-0.6133362054824829,0.7718780636787415,-0.2015962898731231,0.6029625535011292,-0.6829496622085571,-0.9373502731323242,0.8396188020706177,0.2112039444305124,0.8699372539699882,0.211401126121605,-0.3923159695481919,0.2029873924017189,2.2339452471985513,-2.5655466994863807,1.6673308373780071,backhand
1761072575441149952,8.410150051116943,0.6334531307220459,-1.251897215843201,-1.048046350479126,0.78071528673172,-0.1900329440832138,0.5952907800674438,-0.6600640416145325,-0.87841796875,0.7831729650497437,0.2074461888027486,0.8673982871287809,0.2127571396075441,-0.3991499384926648,0.1911956970933568,2.222245821212431,-2.5656580798581854,1.7512597353362906,backhand
1761072575451196672,8.420196771621704,0.3821329772472381,-1.3599355220794678,-1.4955002069473269,0.7907819151878357,-0.1770774722099304,0.585924506187439,-0.6164044737815857,-0.6619117856025696,0.771405816078186,0.2044100987520243,0.8637578440043736,0.2165286446033014,-0.4065147528725246,0.1780162022086978,2.208475894386393,-2.560517740130196,2.057175516452811,backhand
1761072575461242624,8.430242776870728,0.2080340236425399,-1.5325138568878174,-1.8571147918701172,0.8020692467689514,-0.1618251800537109,0.5748888850212097,-0.5494601130485535,-0.4618930518627167,0.7454540729522705,0.2014293601437164,0.859116620175816,0.2221780189954116,-0.4147067405237647,0.1625399298201214,2.1926803936599972,-2.5518437270342424,2.416764826525094,backhand
1761072575471287808,8.440287828445435,-0.0322251766920089,-1.734204649925232,-2.080244302749634,0.8144322037696838,-0.1452429443597793,0.5617873072624207,-0.4845981001853943,-0.2520806491374969,0.7417863011360168,0.198958714468687,0.8534035884591158,0.22933811590398,-0.4237002225757736,0.1457585120831492,2.174637120287988,-2.5399035224973576,2.70849046314685,backhand
1761072575481333760,8.450333833694458,-0.3508758544921875,-1.9317753314971924,-2.239532709121704,0.8276463150978088,-0.1284675300121307,0.5463495850563049,-0.4556064009666443,-0.0626488178968429,0.7536687254905701,0.1975008276746614,0.8465949380353214,0.2375959004753313,-0.4333805262478089,0.1288235489712832,2.1542560575085816,-2.524982789198683,2.9783177385686552,backhand
1761072575491379712,8.460379838943481,-0.7305616736412048,-2.1206822395324707,-2.365574359893799,0.8413615226745605,-0.1120561584830284,0.5287293195724487,-0.4533150792121887,0.0510362535715103,0.7375671863555908,0.1974147014944085,0.8386630301187795,0.2469999858727196,-0.4434669618205142,0.1122919990029384,2.1318519705832384,-2.506653270740506,3.259901159889491,backhand
1761072575501425664,8.470425844192505,-1.0519883632659912,-2.307537317276001,-2.460905075073242,0.8554223775863647,-0.0961430072784423,0.5089291334152222,-0.4558253288269043,0.1149723529815673,0.7208376526832581,0.1987535764984151,0.8295989138013481,0.2573523172434233,-0.4539078889087901,0.0962917437766394,2.1074905245305655,-2.48520754823576,3.5337602883599253,backhand
1761072575511471872,8.480471849441528,-1.2732264995574951,-2.5239222049713135,-2.5149476528167725,0.8697449564933777,-0.0803943201899528,0.4869090318679809,-0.4523255825042724,0.1546283364295959,0.6740864515304565,0.2012615277847504,0.8194219055991594,0.2683323689844399,-0.4648002273325958,0.0804811712605343,2.081154986643343,-2.4614765639672647,3.7836821632282067,backhand
1761072575521517824,8.490517854690552,-1.4107996225357056,-2.7024779319763184,-2.5481624603271484,0.884055495262146,-0.0645556300878524,0.462902307510376,-0.4307321310043335,0.1878466606140136,0.5775182247161865,0.2045949334254169,0.8082771184015092,0.2795339909459549,-0.4761195180879773,0.0646005511384804,2.0531548219523863,-2.436562393670964,3.973269997368212,backhand
1761072575531562496,8.50056266784668,-1.4398294687271118,-2.918229818344116,-2.6452901363372803,0.898212730884552,-0.0478211008012294,0.4369521141052246,-0.412555992603302,0.203048750758171,0.4890885353088379,0.2083218402227679,0.7961549406857046,0.2908837742721893,-0.4879815388429706,0.0478393465626226,2.0235601898326383,-2.4110755322303956,4.193654024486407,backhand
1761072575541608448,8.510608673095703,-1.440050721168518,-3.0907130241394043,-2.8034563064575195,0.9120664000511168,-0.0292284786701202,0.4089995920658111,-0.4119901061058044,0.1767504811286926,0.4305847883224487,0.211967563267197,0.7829913580323589,0.3023645605408278,-0.5005696786667359,0.0292326418907532,1.9923453719904467,-2.38561576612761,4.41425195693895,backhand
1761072575551654656,8.520654678344727,-1.4481399059295654,-3.151183843612671,-3.023653984069824,0.925001323223114,-0.0080445408821105,0.3798789978027344,-0.4491253495216369,0.1588166356086731,0.3951149582862854,0.2152668879485806,0.7688087494899423,0.3144401486027188,-0.5135374637029186,0.0080446278301859,1.9604750694603457,-2.359724022895171,4.6010381674979115,backhand
1761072575561700608,8.53070068359375,-1.552803635597229,-3.2465782165527344,-3.196436882019043,0.936586320400238,0.0155747374519705,0.350090354681015,-0.4732227921485901,0.1733290553092956,0.3859020173549652,0.2182614096468686,0.7536666833299185,0.3271570076064349,-0.5266086849245735,-0.0155753673998274,1.9285092625626512,-2.333314084561258,4.8133852939122095,backhand
1761072575571746560,8.540746688842773,-1.7117294073104858,-3.440357446670532,-3.311861276626587,0.9468902349472046,0.0409011580049991,0.3189456164836883,-0.4704344272613525,0.1728439927101135,0.3796780407428741,0.2214730911086533,0.7373187636714151,0.3403437311022935,-0.5398860861812858,-0.0409125709875237,1.895694926370694,-2.3060739313414618,5.072918493365685,backhand
1761072575581792512,8.550792694091797,-1.822358250617981,-3.5360095500946045,-3.4431848526000977,0.955655574798584,0.067792497575283,0.2865775525569916,-0.494992733001709,0.1558097898960113,0.355725884437561,0.2249383123989411,0.7197584495839798,0.3538877656354565,-0.5532757004467731,-0.0678445355982356,1.8621387682083703,-2.278153654528025,5.26116670151502,backhand
1761072575591837696,8.560837745666504,-1.8377548456192017,-3.624123096466065,-3.5887274742126465,0.9624579548835754,0.0967174097895622,0.253614604473114,-0.5577949285507202,0.1775135397911071,0.3300951421260834,0.2282915536692619,0.7010895305305849,0.3678053444383198,-0.5666353810514679,-0.0968688314806753,1.8284466923179492,-2.249968634383007,5.421307589051216,backhand
1761072575601883648,8.570883750915527,-1.802594542503357,-3.7920031547546382,-3.6851959228515625,0.9671683311462402,0.1276489794254303,0.2197517305612564,-0.6138055324554443,0.2258818447589874,0.29123455286026,0.2312999816667118,0.6813467356333315,0.381631358630853,-0.5801933613948835,-0.1279982111136306,1.7942146704415964,-2.2226719871095812,5.586528797037906,backhand
1761072575611929600,8.58092975616455,-1.7607719898223877,-3.988290548324585,-3.7563769817352295,0.9696979522705078,0.1602367162704467,0.184417724609375,-0.6429616212844849,0.2519031167030334,0.2424621433019638,0.2341523647138095,0.660368848626792,0.3951225739185509,-0.5941075072160849,-0.1609304669680807,1.758732566235254,-2.196501775655853,5.754749996907648,backhand
1761072575621975552,8.590975761413574,-1.6744229793548584,-4.173697471618652,-3.8137500286102295,0.9697617888450624,0.1942668408155441,0.1477250158786773,-0.6763962507247925,0.2475361824035644,0.1814223676919937,0.2366735005473912,0.638295597385805,0.407972100882458,-0.6083775645256965,-0.1955099952812664,1.7219654223331466,-2.172283782345388,5.896450812065853,backhand
1761072575632021760,8.601021766662598,-1.666988968849182,-4.373234748840332,-3.8514981269836426,0.9671372175216676,0.2294022887945175,0.109636977314949,-0.7309921383857727,0.2432081848382949,0.1643345355987548,0.239134479349715,0.6149911637039129,0.4202432112906387,-0.6228934261693573,-0.2314635454989924,1.683676811997768,-2.149582825597963,6.061193959352227,backhand
1761072575642066688,8.611066818237305,-1.7229886054992676,-4.496747016906738,-3.9141998291015625,0.9615120887756348,0.2654841244220733,0.0708006918430328,-0.7864480018615723,0.274432897567749,0.1601868867874145,0.2416632682840002,0.5904540678254324,0.4321623991807294,-0.6373370703522218,-0.2687060218140642,1.6442984120765245,-2.127792938114365,6.205673514686271,backhand
1761072575652112640,8.621112823486328,-1.834947943687439,-4.548856258392334,-3.994077205657959,0.9525663256645204,0.3026055693626404,0.0323652997612953,-0.8176174759864807,0.328009694814682,0.1848282814025879,0.2441009133249909,0.5648512338539469,0.4439884390476569,-0.6513311264025525,-0.3074252174230985,1.6047602128363894,-2.1065777946131505,6.32548653783362,backhand
1761072575662158848,8.631158828735352,-2.0598249435424805,-4.681461334228516,-4.03287935256958,0.9402105212211608,0.3405547440052032,-0.0051536466926336,-0.7870123386383057,0.4029754996299743,0.2406120300292968,0.2466951354863526,0.5380953936059478,0.4559347804348288,-0.6646189217654246,-0.3475068342206561,1.5653150065193957,-2.0851078344590226,6.5132998467979695,backhand
1761072575672204800,8.641204833984375,-2.3583056926727295,-4.840532302856445,-4.012107849121094,0.9245370626449584,0.3787929117679596,-0.0418018512427806,-0.727668046951294,0.4520329535007477,0.2372059226036071,0.2502001527813048,0.5098073521575376,0.4681832314419927,-0.6769792601437279,-0.3884916758073005,1.5256132794885728,-2.0618415805126613,6.714861734099103,backhand
1761072575682250752,8.651250839233398,-2.4967896938323975,-4.94253396987915,-4.012416362762451,0.9055935740470886,0.4170952141284942,-0.0770189613103866,-0.7069851756095886,0.4523505866527557,0.2116930484771728,0.2543895291764903,0.4802522263703637,0.480466770438141,-0.6883280184099412,-0.4302468902581541,1.4859524504576274,-2.0374225144345424,6.838280916049069,backhand
1761072575692296704,8.661296844482422,-2.463911533355713,-5.080282688140869,-4.02833890914917,0.8832127451896667,0.4556175172328949,-0.1111203208565712,-0.727100133895874,0.4494117200374603,0.1917630434036255,0.2585843972191693,0.4496444497321327,0.4921988501569044,-0.6990666501285814,-0.4730658022135486,1.4456401690476286,-2.014011811701834,6.93596760391744,backhand
1761072575702341888,8.671341896057129,-2.322723388671875,-5.185074806213379,-3.9985921382904057,0.8574484586715698,0.493834376335144,-0.1446013897657394,-0.7674369812011719,0.4767161011695862,0.1171661168336868,0.2625495799269067,0.41821590753617,0.5027869943987977,-0.7094845244336028,-0.5164938221370818,1.4037268165459489,-1.9932854308985668,6.947573948847893,backhand
1761072575712387584,8.681387662887573,-2.0951316356658936,-5.206844806671143,-3.9681997299194336,0.8285224437713623,0.5311568379402161,-0.1772653013467788,-0.8259284496307373,0.4851700663566589,-0.0159262418746948,0.2662178651276826,0.3862891284793845,0.5120039615249995,-0.7195559130161078,-0.559965328261949,1.3600206145951543,-1.9759482886167583,6.873675763960573,backhand
1761072575722433536,8.691433668136597,-1.873998999595642,-5.146427631378174,-3.993800401687622,0.7965168952941895,0.5674766898155212,-0.2086412012577057,-0.884666919708252,0.4571662545204162,-0.1085737347602844,0.2690281251656254,0.3543388995750307,0.5197339189270781,-0.7293452853677707,-0.6034380880736492,1.3146101356243385,-1.9633687574391276,6.778497714392064,backhand
1761072575732479488,8.70147967338562,-1.7605401277542114,-5.05695104598999,-4.005904674530029,0.7615169882774353,0.6028944849967957,-0.2379287332296371,-0.8899960517883301,0.4515488147735595,-0.1404435038566589,0.2707999829985092,0.3225105713038573,0.5263293335154395,-0.7386689078709882,-0.6471241810650975,1.267965699077071,-1.95533749852885,6.687266084461841,backhand
1761072575742525696,8.711525678634644,-1.7948728799819946,-5.011627674102783,-3.941838502883911,0.7240331768989563,0.6370370388031006,-0.26449915766716,-0.8235662579536438,0.4590780735015869,-0.1372190117835998,0.272094131701169,0.2907224235438018,0.5321944150287462,-0.7471374670333764,-0.6906482953490694,1.2205447855221003,-1.9501677994772244,6.623901522663649,backhand
1761072575752571648,8.721571683883667,-2.0237419605255127,-5.014789581298828,-3.844326257705689,0.6845557689666748,0.6698853373527527,-0.2874666154384613,-0.7290198802947998,0.4838622212409973,-0.0977720022201538,0.2736474458471586,0.2586431344544281,0.5379316192849751,-0.7542216978233987,-0.7340543345223106,1.1732264673552484,-1.945143477918306,6.634944645072809,backhand
1761072575762616576,8.731616735458374,-2.2141754627227783,-5.0433149337768555,-3.7890195846557617,0.6432588696479797,0.7016992568969727,-0.3063271343708038,-0.6513612866401672,0.5180730819702148,-0.055107831954956,0.2755636478360144,0.2260969423511752,0.5437983066861684,-0.7597554538973545,-0.7777797232601183,1.1263601290227212,-1.9393740273189424,6.685377170652767,backhand
1761072575772662528,8.741662740707397,-2.2464377880096436,-5.053841590881348,-3.741814613342285,0.6001563668251038,0.7323141098022461,-0.3217582106590271,-0.604840874671936,0.4977120757102966,-0.096958190202713,0.2774587292969682,0.1932357827918539,0.5493458225754149,-0.7641306931622868,-0.8217140243171678,1.0786689013806725,-1.9348546743965456,6.677497597284603,backhand
1761072575782708736,8.751708745956421,-1.9548521041870115,-4.942233562469482,-3.692327499389648,0.5557536482810974,0.7609162926673889,-0.3348795473575592,-0.6161021590232849,0.4042295813560486,-0.2456868886947631,0.2789507377009232,0.1606804889197052,0.553842950453168,-0.7678712615363791,-0.8647241206831915,1.028490515352343,-1.934612645648036,6.471506910912882,backhand
1761072575792754688,8.761754751205444,-1.4878758192062378,-4.761950492858887,-3.6066956520080566,0.5106856822967529,0.7863897085189819,-0.3475503921508789,-0.6742752194404602,0.247652530670166,-0.4161977469921112,0.2796566210800632,0.1292659806245119,0.55634082312471,-0.771730092321386,-0.9049426588531684,0.9732393247441522,-1.9428340892721896,6.15615143381248,backhand
1761072575802800640,8.771800756454468,-1.1818829774856567,-4.5804619789123535,-3.3473474979400635,0.4661456644535064,0.8082141876220703,-0.3598582446575165,-0.7189685702323914,0.2569712996482849,-0.4724476635456085,0.2800031291947137,0.0994454187090168,0.5569393871562499,-0.7755819136224765,-0.9411132382912112,0.9133715957386632,-1.958859776690334,5.795016357586719,backhand
1761072575812846592,8.781846761703491,-1.0113165378570557,-4.384298324584961,-3.0667786598205566,0.4234006404876709,0.8265292644500732,-0.3709195852279663,-0.7234647274017334,0.4467556476593017,-0.4459444284439087,0.2805181901073755,0.0714506814928763,0.5562688301014059,-0.7789540493310817,-0.9729136306794698,0.8513726926824149,-1.9795849383312192,5.445178076705338,backhand
1761072575822891776,8.791891813278198,-0.8441658020019531,-4.121821403503418,-2.995025157928467,0.3820488452911377,0.8422613143920898,-0.3803085088729858,-0.6996757984161377,0.6175164580345154,-0.4063735902309418,0.2808731276481843,0.0450118590851527,0.5548149934534836,-0.7818340854492688,-1.001464403240826,0.7876810063375418,-2.004593327116157,5.164513847427744,backhand
1761072575832937728,8.801937818527222,-0.5318422913551331,-3.878427505493164,-3.0574495792388916,0.340746134519577,0.8559958338737488,-0.3887969851493835,-0.5847799777984619,0.629462480545044,-0.3917663395404815,0.2801796181332855,0.0198604336252076,0.5524554944392395,-0.7847915289992814,-1.0274739687704182,0.7196288668749399,-2.037436592824033,4.967197808405447,backhand
1761072575842983680,8.811983823776245,-0.1981002986431121,-3.781638145446778,-2.882021188735962,0.2997849881649017,0.8669848442077637,-0.3980782628059387,-0.3525041043758392,0.4889569282531738,-0.4645163416862488,0.2789398492663046,-0.0039706797148773,0.5485846313966867,-0.7881825496776494,-1.049119601305034,0.6454697216323915,-2.0790023449118396,4.758789438895535,backhand
1761072575853029632,8.822029829025269,-0.0326162613928318,-3.8117945194244385,-2.508798837661743,0.2608166038990021,0.8750414848327637,-0.4077710807323456,-0.1153240501880645,0.3593335151672363,-0.4941301941871643,0.2786291460611328,-0.0265754147244595,0.5435146790668411,-0.791360498904499,-1.0655214736998364,0.5690401803680141,-2.1230019407558323,4.563432138936038,backhand
1761072575863075840,8.832075834274292,-0.1157559230923652,-3.833466291427612,-2.1795876026153564,0.2243202775716781,0.880959153175354,-0.4166427850723266,-0.0208901017904281,0.2788155078887939,-0.4342788159847259,0.2797041531531908,-0.0482457375227347,0.5379135177523626,-0.79378011996667,-1.0778854312825004,0.4938932813196336,-2.164777997255936,4.41128840121764,backhand
1761072575873120768,8.842120885848999,-0.2249399274587631,-3.701153039932251,-1.939611315727234,0.1901915371417999,0.8860251307487488,-0.4228319525718689,-0.0872862786054611,0.279807448387146,-0.3992810845375061,0.2816150632565917,-0.0690915566310532,0.5327385685607982,-0.7950528724239043,-1.0887003669042985,0.4226909762363383,-2.2024408890986327,4.18464142455026,backhand
1761072575883166720,8.852166891098022,-0.1238884180784225,-3.4847822189331055,-1.8536560535430908,0.1579602360725402,0.8901076912879944,-0.4275005459785461,-0.2168591618537902,0.2994216680526733,-0.4463855326175689,0.2835580744219189,-0.0887479780968204,0.5276111476768427,-0.7958297476044324,-1.0975814386081977,0.3539375611032396,-2.239196273534393,3.9490627012448485,backhand
1761072575893212672,8.862212896347046,0.0367665067315101,-3.269148588180542,-1.8567969799041748,0.1267907321453094,0.8929744958877563,-0.4318805336952209,-0.2874963283538818,0.3826450109481811,-0.481876790523529,0.2850328669953149,-0.1072125762273338,0.5220777616540428,-0.7966785040989977,-1.1039108272768208,0.2855549115161344,-2.277832487743572,3.7598376683310852,backhand
1761072575903258624,8.87225866317749,0.3804260492324829,-3.0948710441589355,-1.8315349817276,0.0963128879666328,0.8941816687583923,-0.4372218251228332,-0.2619622945785522,0.4180283546447754,-0.5317875146865845,0.2860399062395539,-0.1244864801626503,0.515647361289552,-0.7979925163714247,-1.106600023936703,0.2168209880492273,-2.318982549455013,3.6162786325447844,backhand
1761072575913304576,8.882304668426514,0.7129477858543396,-2.9868898391723633,-1.7186163663864136,0.0668862536549568,0.8931693434715271,-0.4447187483310699,-0.1868813782930374,0.3456917405128479,-0.5694871544837952,0.2870710611617975,-0.1404399032256492,0.5078555436859805,-0.799968517900129,-1.1043439789617866,0.1492823443901471,-2.360434647807416,3.5190123147719943,backhand
1761072575923350528,8.892350673675537,0.8328682780265808,-2.9334146976470947,-1.5286861658096311,0.0389713905751705,0.8905168175697327,-0.4532782733440399,-0.1092686504125595,0.3411421179771423,-0.526351273059845,0.2885898875314329,-0.1553283907585222,0.4992333661563924,-0.8020942321893894,-1.0984798856141778,0.0857658301600375,-2.398329895925832,3.411080877149164,backhand
1761072575933395712,8.902395725250244,0.8400723934173584,-2.8624837398529053,-1.3415418863296509,0.0128376288339495,0.8869726061820984,-0.4616435468196869,-0.0939991325139999,0.3567560315132141,-0.5121723413467407,0.2907083397942255,-0.1693502657855947,0.49040667910492,-0.8039343579644281,-1.0907480459047725,0.0278013651345836,-2.430768214890524,3.2709737724233072,backhand
1761072575943441664,8.912441730499268,0.7263780832290649,-2.7168548107147217,-1.1917445659637451,-0.0114661790430545,0.8833329081535339,-0.4686059057712555,-0.1335075795650482,0.3404067158699035,-0.4903937578201294,0.2931085801572495,-0.1825849528704141,0.4820371212670062,-0.8052268455981368,-1.0829254827536885,-0.0244638222926272,-2.4581086549240285,3.054370686868798,backhand
1761072575953487616,8.922487735748291,0.6119316220283508,-2.532447338104248,-1.0771030187606812,-0.0339622758328914,0.8798972964286804,-0.4739485085010528,-0.1666144877672195,0.3064277172088623,-0.4633989036083221,0.2954604720022504,-0.1949521111242455,0.4743621188209266,-0.8060256078345517,-1.0756460546039437,-0.0715358812167143,-2.481563920186055,2.8192021465891575,backhand
1761072575963533568,8.932533740997314,0.5245290994644165,-2.353168487548828,-0.9720302820205688,-0.0546663925051689,0.8767545223236084,-0.4778211414813995,-0.160650372505188,0.3013307452201843,-0.4584886729717254,0.2976557201236133,-0.2064221631446688,0.4674177206006226,-0.8064190017042379,-1.0690719317027446,-0.1139123699460512,-2.501888916684958,2.5994952541104546,backhand
1761072575973579520,8.942579746246338,0.5361229181289673,-2.1814866065979004,-0.909559726715088,-0.0738298222422599,0.8736389875411987,-0.4809408187866211,-0.11525709182024,0.3199950456619262,-0.4478311538696289,0.299689248775123,-0.2170065006793404,0.4609097245325738,-0.8066329795281946,-1.0626316475973234,-0.1523221464145567,-2.5197716867813855,2.4235532786739324,backhand
1761072575983625728,8.952625751495361,0.6118362545967102,-2.031611919403076,-0.8339773416519165,-0.0917133092880249,0.8701150417327881,-0.4842400550842285,-0.0478435531258583,0.2993490099906921,-0.4252447783946991,0.3016254546464293,-0.2266853185462589,0.4544158230158425,-0.806933752976428,-1.0554357224126585,-0.1871792901243007,-2.535479272193464,2.279760689170769,backhand
1761072575993670656,8.962670803070068,0.5764191150665283,-1.9082921743392944,-0.6782780289649963,-0.1079522222280502,0.8664321303367615,-0.4874852001667022,0.012950986623764,0.2759628891944885,-0.3787867426872253,0.3037073452178968,-0.2354821925132124,0.4481133062192405,-0.8071583338220967,-1.0480115621408257,-0.2179302541484293,-2.5481032320138444,2.1056825742346144,backhand
1761072576003716608,8.972716808319092,0.5560420751571655,-1.795379400253296,-0.5667150616645813,-0.1224444210529327,0.8629446625709534,-0.4902384579181671,0.0212176442146301,0.2590645551681518,-0.3527332842350006,0.3060220830841655,-0.2435244867502437,0.4422404205808661,-0.8071366763877944,-1.041068572656823,-0.2447574915380468,-2.557576883645099,1.9630934621959448,backhand
1761072576013762816,8.982762813568115,0.5104636549949646,-1.6711196899414062,-0.498212993144989,-0.1356372237205505,0.8595923781394958,-0.4926494061946869,-0.024457961320877,0.2369346618652343,-0.3458057940006256,0.3083549132106312,-0.2509083598955245,0.4367153523834437,-0.8069955863995861,-1.0344714049012915,-0.2686655716666517,-2.565094210807936,1.8169838600601738,backhand
1761072576023808768,8.992808818817139,0.3314876556396484,-1.5403894186019895,-0.4360162317752838,-0.1475913673639297,0.8568384647369385,-0.4940087795257568,-0.0472939014434814,0.235492467880249,-0.3186895847320556,0.310501481930593,-0.2577600938490019,0.4319205327263077,-0.8065936138587274,-1.029106136578725,-0.29032120531223,-2.5715764163767925,1.6348681234747846,backhand
1761072576033854720,9.002854824066162,0.2504468858242035,-1.4134035110473633,-0.3836952149868011,-0.158423364162445,0.8547715544700623,-0.4942345023155212,-0.0267573148012161,0.1857252717018127,-0.3423438668251037,0.3124097325956423,-0.2641596594356549,0.4279046860118831,-0.8059265021247013,-1.0251105118139918,-0.3101953399178112,-2.577493727159177,1.485818005565898,backhand
1761072576043899648,9.01289987564087,0.1324297785758972,-1.3112541437149048,-0.3193057477474212,-0.1682289540767669,0.8532447218894958,-0.4936319589614868,0.0221412777900695,0.0993003845214843,-0.3800405263900757,0.3141512814527011,-0.2701352461508864,0.4245126228378051,-0.8050621434159627,-1.022175815113486,-0.3284539435991008,-2.58283344667365,1.356053552116475,backhand
1761072576053945856,9.022945880889893,0.0670049712061882,-1.2195061445236206,-0.2190244197845459,-0.1768505722284317,0.8522878289222717,-0.4922696948051452,0.069993257522583,0.0577616095542907,-0.3987978100776672,0.3158679170169173,-0.2756822523771963,0.4217397847016358,-0.803966713129641,-1.0203437041014325,-0.3448962999808347,-2.5871950384986966,1.2408289967433728,backhand
1761072576063991808,9.032991886138916,0.0175371207296848,-1.1237874031066897,-0.1210169792175293,-0.1840846538543701,0.8517890572547913,-0.4904775619506836,0.0862147957086563,0.0439323186874389,-0.417481392621994,0.3177208625628105,-0.2807099530925885,0.4194796128115485,-0.8026781617588723,-1.019390869775697,-0.3590487120220557,-2.5899729433180947,1.1304206240350096,backhand
1761072576074037760,9.04303789138794,0.0013664071448147,-1.0056650638580322,-0.0763059705495834,-0.1901746690273285,0.8515867590904236,-0.4885014593601227,0.0663800835609436,0.0681825280189514,-0.4156733155250549,0.3195732160836898,-0.2852104812412148,0.4176173426227039,-0.8013262638809739,-1.019004809588812,-0.3712501937721082,-2.5917107813508977,1.0085567355754357,backhand
1761072576084083712,9.053083896636965,-0.000244106631726,-0.8981773853302002,-0.0302214790135622,-0.1953403204679489,0.8514578938484192,-0.4866842627525329,0.0351688265800476,0.0905433893203735,-0.4172005951404571,0.3213434951315646,-0.2891619739445158,0.4159846426100724,-0.800050275042111,-1.018759048409285,-0.3816865954162933,-2.592713094212202,0.8986857141962421,backhand
1761072576094129664,9.063129663467407,-0.0065781688317656,-0.8016199469566345,0.0053461035713553,-0.1996097117662429,0.8514664173126221,-0.4849338233470917,0.0127048343420028,0.1106764674186706,-0.4198817908763885,0.323055852890344,-0.292620462948594,0.4146159017058448,-0.798812736804607,-1.0187753305024758,-0.3904855174010438,-2.5930007957005228,0.8016647631568524,backhand
1761072576104174592,9.073174715042114,0.0019429144449532,-0.7197027206420898,-0.0095305815339088,-0.2033506631851196,0.8514756560325623,-0.4833608567714691,0.0010191202163696,0.1161909699440002,-0.4050668478012085,0.3246162940040749,-0.2956887221010892,0.4133857223724421,-0.7976870701784289,-1.0187928990395712,-0.3982241960273595,-2.593105493205731,0.7197684440155325,backhand
1761072576114220544,9.083220720291138,-0.0115087125450372,-0.6584417819976807,-0.0123045295476913,-0.206844300031662,0.8514704704284668,-0.4818854331970215,-0.0022469013929367,0.0964207649230957,-0.3810601234436035,0.3259809498851597,-0.2985043473961011,0.4122528760222792,-0.7966675671854409,-1.0187829967767457,-0.4054561078705826,-2.5934264441607655,0.6586572949509597,backhand
1761072576124266752,9.09326672554016,-0.0343721508979797,-0.5990166068077087,-0.035832580178976,-0.2101601660251617,0.8515489101409912,-0.4803095757961273,-0.0040885210037231,0.0635359287261962,-0.3589696288108825,0.3271329067233956,-0.3011492403415984,0.4112837854134914,-0.7957003006005182,-1.0189326386336748,-0.4124536508137106,-2.5941595695730992,0.601070972341085,backhand
1761072576134312704,9.103312730789185,-0.056899294257164,-0.5329281687736511,-0.0682251378893852,-0.2134813368320465,0.8516495823860168,-0.4786634445190429,-0.0174299180507659,0.0376478433609008,-0.3487443625926971,0.3279813297178496,-0.3036574869458307,0.4104392789864655,-0.7948333134904677,-1.0191247067390607,-0.4195180699119448,-2.595686314973594,0.540281993221527,backhand
1761072576144358656,9.113358736038208,-0.0778493508696556,-0.4803905785083771,-0.0659885331988334,-0.2167358100414276,0.8518330454826355,-0.476871132850647,-0.0250549465417861,0.0334208607673645,-0.3373835980892181,0.3285740819580158,-0.3060414376326249,0.4097597743160327,-0.7940243202032821,-1.0194747783789404,-0.4265861302570206,-2.5978639047439587,0.4911111033810715,backhand
1761072576154403584,9.123403787612917,-0.0666928365826606,-0.4313258528709411,-0.0528940334916114,-0.2196526676416397,0.8520644307136536,-0.475119948387146,-0.0271124690771102,0.0261246562004089,-0.335396409034729,0.3290902507211066,-0.3082105311979801,0.40920202886475,-0.7932588460782866,-1.0199166958440378,-0.4330435794458407,-2.599923599194689,0.43964497561702887,backhand
1761072576164449792,9.133449792861938,-0.0340329967439174,-0.3775783777236938,-0.0286097321659326,-0.2220582813024521,0.8522006273269653,-0.4737555384635925,-0.0375242531299591,0.0227383375167846,-0.3438408970832824,0.3296437622971564,-0.3100417167745022,0.4086518867807526,-0.7925987808064893,-1.020176935155203,-0.438311248351275,-2.601261996055016,0.38018704997202923,backhand
1761072576174495744,9.143495798110962,-0.0186726823449134,-0.3276313245296478,-0.0156121756881475,-0.2239670902490615,0.8522811532020569,-0.472710907459259,-0.0495619624853134,0.0149216055870056,-0.3311831355094909,0.3302274203091364,-0.3115576561087349,0.4081376826508329,-0.7920261200242572,-1.020330929576877,-0.4424630221134017,-2.6019397109965388,0.32853415942443953,backhand
