time,seconds_elapsed,rotationRateX,rotationRateY,rotationRateZ,gravityX,gravityY,gravityZ,accelerationX,accelerationY,accelerationZ,quaternionW,quaternionX,quaternionY,quaternionZ,pitch,roll,yaw,omega_mag,label
1761072570408197632,3.377197742462158,0.1493137031793594,-0.3580473065376282,0.2001862525939941,-0.3175598084926605,0.8406821489334106,-0.4386450350284576,0.0611663460731506,0.0504311323165893,-0.0046074986457824,0.3045428444787693,-0.3526881726429481,0.3953334432496771,-0.7915657379845122,-0.998541642110132,-0.6266236834198765,-2.7567993989251938,0.4365397936083382,backhand
1761072570418243584,3.3872437477111816,0.1978340148925781,-0.398652970790863,0.2304525524377823,-0.3172517716884613,0.8405633568763733,-0.4390950798988342,0.0689760148525238,0.0564092993736267,-0.0105356574058532,0.3065030179243685,-0.3533927997336815,0.3944185531236102,-0.7909509193550704,-0.998322332950356,-0.6256759202856783,-2.7513225730777573,0.5011694997642876,backhand
1761072570428289536,3.397289752960205,0.2139344215393066,-0.4508166015148163,0.2701490819454193,-0.3168543875217438,0.8404574394226074,-0.4395846128463745,0.0758570730686187,0.07047700881958,0.000299334526062,0.308746224090819,-0.354183280766375,0.3933978796195064,-0.7902329687680902,-0.9981268645381468,-0.6245524095819597,-2.745044617518342,0.5674364029533876,backhand
1761072570438335744,3.4073357582092285,0.2367933392524719,-0.4930574297904968,0.2983861267566681,-0.3165705800056457,0.8403623104095459,-0.4399708807468414,0.0775873959064483,0.0963747501373291,0.0093678832054138,0.3112019605473949,-0.3551602692963979,0.3922699932723296,-0.7893914429969453,-0.9979512888284646,-0.623710950018455,-2.7383689457366147,0.6230658032878978,backhand
1761072570448381184,3.4173812866210938,0.275044322013855,-0.5363828539848328,0.3390270471572876,-0.3161695003509521,0.8402393460273743,-0.4404937326908111,0.0776593685150146,0.1140453219413757,0.0117675065994262,0.3139267534361325,-0.3561738140607193,0.3910157966042618,-0.7884776026082083,-0.9977245452672348,-0.6225473526169053,-2.7308344810250764,0.6915889558293751,backhand
1761072570458427136,3.427427291870117,0.3010245859622955,-0.5852548480033875,0.3852488994598388,-0.3156295120716095,0.8401061296463013,-0.4411346912384033,0.0858473479747772,0.1338929533958435,0.0186492800712585,0.3169704248719478,-0.3572428918698599,0.3896282539533744,-0.7874625164147819,-0.9974788947431592,-0.6210495449932145,-2.722314517467292,0.7625980284529043,backhand
1761072570468473088,3.4374732971191406,0.3382571637630462,-0.632071852684021,0.4363653361797333,-0.3148717880249023,0.839980959892273,-0.4419137835502624,0.0993261337280273,0.1458131074905395,0.0249063372611999,0.3203540266560411,-0.3583344946718915,0.3881230396598178,-0.786339780742231,-0.997248147490947,-0.6190783650034223,-2.71269187018681,0.8392540988351994,backhand
1761072570478519296,3.447519302368164,0.3456222116947174,-0.6657009720802307,0.4860777556896209,-0.3138761222362518,0.8399137854576111,-0.442748874425888,0.1126585006713867,0.1393952965736389,0.0412138700485229,0.3239830254805017,-0.3594163027776227,0.3865817930248459,-0.7851174354409689,-0.9971243256894384,-0.6166913964407716,-2.7022521965928,0.8938031561935609,backhand
1761072570488565248,3.4575653076171875,0.3606424331665039,-0.6915048956871033,0.5344799160957336,-0.3125894069671631,0.8399474620819092,-0.4435947239398956,0.1258217990398407,0.1385682821273803,0.0540988445281982,0.3278318075483991,-0.3604649366715341,0.3850554144796911,-0.7837880830886438,-0.9971863490090184,-0.6138556272307149,-2.691057458514728,0.9454685431410134,backhand
1761072570498610176,3.4676103591918945,0.3725521862506866,-0.716833233833313,0.5812268257141113,-0.3110388815402984,0.8400582075119019,-0.444473922252655,0.1456030905246734,0.1381675601005554,0.0618597865104675,0.331895998814466,-0.3614847625210645,0.3835255036683774,-0.7823566910014365,-0.9973904594602138,-0.6105857483556943,-2.679112945476318,0.9952234118718236,backhand
1761072570508656384,3.477656364440918,0.4146096110343933,-0.7518511414527893,0.6330306529998779,-0.3091926276683807,0.8401827216148376,-0.4455254375934601,0.1652259528636932,0.1549497246742248,0.0683587193489074,0.3362225112770781,-0.3624422619390978,0.3819330872167845,-0.7808438509542723,-0.99762003124027,-0.6066846662215563,-2.6661758400922375,1.0667282109813188,backhand
1761072570518702336,3.4877023696899414,0.4570860862731933,-0.7889829277992249,0.6873515844345093,-0.3070853054523468,0.8402785062789917,-0.4468006193637848,0.1816122829914093,0.1875687837600708,0.0838245153427124,0.3409513624463696,-0.3634052123636962,0.3801793638696367,-0.7791999715733486,-0.9977967154256286,-0.602150402206259,-2.6518687335615736,1.1418730013656564,backhand
1761072570528748288,3.497748374938965,0.5053311586380005,-0.8267790079116821,0.7392376661300659,-0.3047070205211639,0.8402987718582153,-0.4483877420425415,0.1925854384899139,0.2154263257980346,0.104683518409729,0.3460158329857041,-0.3643076166388581,0.3782672253021995,-0.7774746966644043,-0.9978341518904016,-0.5968766995585563,-2.6362923775802507,1.218767998775516,backhand
1761072570538794240,3.5077943801879883,0.5308666825294495,-0.8709233999252319,0.7917692065238953,-0.3020831048488617,0.8402909636497498,-0.4501743912696838,0.1958513855934143,0.2432661652565002,0.1327915787696838,0.3514666076734635,-0.3652184401075203,0.3762024731796473,-0.7756020010419494,-0.997819681237316,-0.5910212402154577,-2.6194068551963223,1.291210857899138,backhand
1761072570548839168,3.517839193344116,0.5587193369865417,-0.9168416261672974,0.851492166519165,-0.2992333471775055,0.8403095006942749,-0.4520393311977386,0.1887444257736206,0.2741010189056396,0.1545692086219787,0.3572258281720747,-0.3661456472469418,0.3740557436672796,-0.7735693540718261,-0.9978538613549616,-0.5847392168479923,-2.6014997508273607,1.370330169936894,backhand
1761072570558885120,3.5278851985931396,0.5875469446182251,-0.953271508216858,0.9029801487922668,-0.2960986495018005,0.840323269367218,-0.4540733098983764,0.1667040884494781,0.2958614230155945,0.1697410345077514,0.3633851796887518,-0.3670777634524569,0.3717758177454434,-0.7713546544393265,-0.9978792604321448,-0.5778461074538397,-2.582228666933854,1.438510038067569,backhand
1761072570568931072,3.537931203842163,0.5936697721481323,-0.9812917113304138,0.9467337727546692,-0.2927238047122955,0.840384304523468,-0.4561435580253601,0.1390983462333679,0.3135920763015747,0.18787881731987,0.3697764930387398,-0.3679956111233811,0.3694691454172277,-0.7689844577552604,-0.9979919112285928,-0.5705438634405429,-2.562133577274915,1.4871725043055621,backhand
1761072570578977024,3.5479772090911865,0.5737518072128296,-1.015274167060852,0.9814126491546632,-0.2891741096973419,0.8405270576477051,-0.4581404328346252,0.1171770095825195,0.3117251396179199,0.2066298127174377,0.3764341988258411,-0.3689808148319208,0.3671279557013004,-0.7663991057685996,-0.9982553546121238,-0.5630388441380152,-2.5412233443205414,1.524186195483304,backhand
1761072570589023232,3.55802321434021,0.5603465437889099,-1.047793745994568,1.019221544265747,-0.2854902148246765,0.8407983183860779,-0.4599495232105255,0.1070234179496765,0.2978430390357971,0.2268105149269104,0.383209088318221,-0.3700192737538151,0.3648437717273096,-0.763626577395982,-0.9987561859761968,-0.5555004790666291,-2.5199659047483287,1.5654624043958898,backhand
1761072570599068160,3.568068265914917,0.5644788146018982,-1.0658416748046875,1.0747740268707275,-0.2815627753734588,0.8411948084831238,-0.4616422057151794,0.0996170043945312,0.2877876162528991,0.2226285636425018,0.3901293195370089,-0.37105622385912,0.3626240082057696,-0.7606708321007848,-0.9994891033648976,-0.5476784833491984,-2.4981537659545956,1.6154856906579966,backhand
1761072570609114112,3.5781142711639404,0.5763655304908752,-1.080241084098816,1.1583086252212524,-0.2771013975143432,0.8416860699653625,-0.4634430408477783,0.0907763242721557,0.2914163470268249,0.2097046375274658,0.3972677076745201,-0.3719284360031507,0.360482622888055,-0.7575618619410693,-1.0003982405535905,-0.5388879338769035,-2.47524944130157,1.6854663733741355,backhand
1761072570619160064,3.588160276412964,0.6058031916618347,-1.09038245677948,1.244792103767395,-0.2719775438308716,0.8422657251358032,-0.4654211401939392,0.0895739197731018,0.3194317817687988,0.2181372046470642,0.4048714681475259,-0.372677634187076,0.3583305784993222,-0.754181548602657,-1.0014725660464323,-0.5288465706045282,-2.4504472384971163,1.7622255220833052,backhand
1761072570629206272,3.5982062816619873,0.6462454795837402,-1.1172945499420166,1.3289434909820557,-0.2662737369537353,0.8428186774253845,-0.4677124321460724,0.1016314327716827,0.3274540901184082,0.2303009629249572,0.4127972689853139,-0.3732256819485149,0.3561549830999602,-0.7506360941968571,-1.0024991560024294,-0.5175481615387282,-2.424087200960262,1.8525849868322168,backhand
1761072570639251200,3.6082513332366943,0.7005818486213684,-1.1558325290679932,1.4314005374908447,-0.2599374949932098,0.8433064222335815,-0.4703900814056396,0.1175424456596374,0.3060313463211059,0.2363355159759521,0.4212688769640312,-0.3736308159591689,0.353843139081306,-0.7468116439888167,-1.0034060954065722,-0.5048370484681024,-2.395480718729957,1.9686724614822362,backhand
1761072570649297152,3.6182973384857178,0.7708815932273865,-1.181100606918335,1.5158590078353882,-0.2529798746109009,0.8436267375946045,-0.4735982716083526,0.1261335611343383,0.2955334782600403,0.2403523921966552,0.4301498103461156,-0.3737805516184527,0.3514099657594906,-0.7428125161864692,-1.00400233182209,-0.4906050272601342,-2.3649177209008507,2.070527856870161,backhand
1761072570659343360,3.628343343734741,0.8126262426376343,-1.2106318473815918,1.5924139022827148,-0.2455241382122039,0.8437216877937317,-0.4773381352424621,0.1223094165325164,0.2906166911125183,0.2465031743049621,0.4394609928516908,-0.3737323401977182,0.3487908657211478,-0.7386089384073392,-1.004179221394287,-0.4750703108851087,-2.332437569221725,2.1591139192504847,backhand
1761072570669389312,3.6383893489837646,0.7781162261962891,-1.238908767700195,1.6822316646575928,-0.237519234418869,0.8438616991043091,-0.4811258018016815,0.1206216365098953,0.2821453809738159,0.2619485259056091,0.4490379452330281,-0.3735623549370581,0.3462488550552974,-0.734117052466424,-1.004440181478817,-0.4585739230238824,-2.298640676253156,2.2294087040583266,backhand
1761072570679435264,3.648435354232788,0.6993775963783264,-1.273514747619629,1.7275608777999878,-0.2291332632303238,0.8442714810371399,-0.4844622015953064,0.1110149919986724,0.2593662142753601,0.2996630072593689,0.458829620407287,-0.3735067393736391,0.3438918694531458,-0.7291820417052707,-1.005204281265858,-0.4417859744150552,-2.263938889047687,2.2573071171698538,backhand
1761072570689481216,3.658481359481811,0.5886790156364441,-1.3269050121307373,1.778416395187378,-0.2205955684185028,0.8450944423675537,-0.4869837164878845,0.1003104895353317,0.2583450078964233,0.3379510641098022,0.4685307381000181,-0.3736641793163525,0.3418818790615765,-0.7238584017588405,-1.0067418083245685,-0.4253322033951602,-2.2293973440655415,2.2956447393574715,backhand
1761072570699526144,3.668526172637939,0.5371434092521667,-1.3851113319396973,1.8304283618927,-0.2118987739086151,0.8462806940078735,-0.4887821078300476,0.1005248427391052,0.2949088811874389,0.3552829623222351,0.4783558633038693,-0.3741131154017749,0.3400710560015544,-0.7180298044919751,-1.008964618939584,-0.409068329044485,-2.194296394739926,2.3574402287209737,backhand
1761072570709572096,3.678572177886963,0.5516768097877502,-1.4517332315444946,1.887968063354492,-0.203060507774353,0.8474876880645752,-0.4904396831989288,0.093899130821228,0.3038337230682373,0.3512948155403137,0.488292785543661,-0.3746406053397844,0.3382670250913735,-0.711891871149594,-1.0112343477230894,-0.3925489521809964,-2.158454765493347,2.444647231457889,backhand
1761072570719618048,3.6886181831359863,0.5319595336914062,-1.5105615854263306,1.9551717042922976,-0.1939919739961624,0.8486514687538147,-0.4920953512191772,0.0734322667121887,0.3046078085899353,0.3583520650863647,0.498593559827702,-0.3752811338477742,0.3363278027977226,-0.705302876802324,-1.0134305761804283,-0.3755104396607529,-2.1210168629241664,2.527345176685633,backhand
1761072570729664000,3.6986641883850098,0.521058976650238,-1.5605555772781372,2.0237350463867188,-0.1846050918102264,0.8498453497886658,-0.4936435222625732,0.0375408828258514,0.3290181756019592,0.3645389080047607,0.50905408952004,-0.3759499708321706,0.3344246673915584,-0.6983450298118435,-1.0156917865665374,-0.3578624278958255,-2.08245618405082,2.6081295414330072,backhand
1761072570739709184,3.708709239959717,0.50086510181427,-1.6065843105316162,2.063706159591675,-0.1749912053346634,0.8509984612464905,-0.4951561689376831,-0.0098385065793991,0.3415674567222595,0.3677605390548706,0.5198088901540672,-0.3767247384839876,0.3324159747526654,-0.6909245780246351,-1.0178836149681507,-0.3397059584094117,-2.0424098539290725,2.662867272358573,backhand
1761072570749755136,3.71875524520874,0.4468071758747101,-1.661511778831482,2.098238945007324,-0.1653187274932861,0.8521765470504761,-0.496452271938324,-0.0449473857879638,0.3408776521682739,0.3756789565086365,0.5305357972972488,-0.3775966741149211,0.3304460866079001,-0.6831968043507999,-1.0201309050192726,-0.3214507417385617,-2.001942059261205,2.713459915671197,backhand
1761072570759801088,3.728801250457764,0.4077091813087463,-1.713380217552185,2.1412315368652344,-0.1555906236171722,0.8534721732139587,-0.4973699152469635,-0.0671418905258178,0.3241859078407287,0.377725750207901,0.5413702482145771,-0.3787077553847252,0.3284744704455303,-0.6749838550167934,-1.0226120119923328,-0.3031825489081905,-1.960619451422577,2.772502667426828,backhand
1761072570769847040,3.738847255706787,0.3702481091022491,-1.8037844896316528,2.1798226833343506,-0.1458512544631958,0.8548400402069092,-0.4979720115661621,-0.0903548300266265,0.3190034627914428,0.3925032019615173,0.5521693136176193,-0.3799885898535756,0.3265312742946939,-0.6664046953054186,-1.025242462555561,-0.2849216124389966,-1.918840152211837,2.8534801695663634,backhand
1761072570779893248,3.7488932609558105,0.4326172769069671,-1.902164340019226,2.2426059246063232,-0.1361206322908401,0.8559752702713013,-0.4987760782241821,-0.1122314184904098,0.3603485822677612,0.4101988077163696,0.563241261666344,-0.3813801259180953,0.3242856059471165,-0.6573791694057913,-1.0274342090181674,-0.2664214655509754,-1.8756740530733305,2.972316978015393,backhand
1761072570789938176,3.7589383125305176,0.5242640972137451,-1.9960278272628784,2.3226478099823,-0.1262832283973693,0.8565903306007385,-0.5003054738044739,-0.1309341639280319,0.376487672328949,0.4003450870513916,0.5746160454579126,-0.382621038113749,0.3216339816271857,-0.6480502552077155,-1.0286250781579742,-0.2472477360042485,-1.8309631097497117,3.107036012029903,backhand
1761072570799984128,3.768984317779541,0.5788592100143433,-2.017688512802124,2.38025164604187,-0.1161489337682724,0.856667160987854,-0.5026237964630127,-0.1812601089477539,0.3444131016731262,0.3717187047004699,0.5864380120449872,-0.3836741385350633,0.3185627857348749,-0.6382806910528882,-1.0287739438738526,-0.2270988402628234,-1.7841235589395148,3.173600922957565,backhand
1761072570810030336,3.779030323028565,0.5630741119384766,-1.9923299551010132,2.409655809402466,-0.1056798473000526,0.8564342856407166,-0.5053236484527588,-0.250445008277893,0.3027606010437011,0.3613417148590088,0.5982099772529814,-0.3844555860720312,0.3154870522187927,-0.628336368119978,-1.028322765757245,-0.2061616672973664,-1.736639092880833,3.1769281114490395,backhand
1761072570820076288,3.789076328277588,0.5300455689430237,-1.9708291292190552,2.452098608016968,-0.0948582142591476,0.8560991287231445,-0.5080316662788391,-0.281316727399826,0.2810773849487304,0.3631189465522766,0.6099529985357567,-0.3851420356163331,0.3124896372674788,-0.6180397763742029,-1.0276738597570996,-0.1845915528130008,-1.6883535611313296,3.1902826434617397,backhand
1761072570830122240,3.7991223335266113,0.48185595870018,-1.9746094942092896,2.5078141689300537,-0.0836070403456687,0.8557365536689758,-0.5106122493743896,-0.2729756236076355,0.2808448076248169,0.3573377132415771,0.6215055230272126,-0.3856945237215315,0.3097314956415476,-0.6074842676935003,-1.0269727442710743,-0.1622985965215719,-1.63964463302941,3.228064393013663,backhand
1761072570840167168,3.8091673851013184,0.4505320191383362,-2.010465383529663,2.558825731277466,-0.0720450580120086,0.855320394039154,-0.5130658149719238,-0.2599251866340637,0.2842975258827209,0.3588604927062988,0.633081044686714,-0.3862738287031054,0.30701729577411,-0.5964405070957989,-1.0261689020521203,-0.1395085197846839,-1.5899009625967853,3.285200036784305,backhand
1761072570850213376,3.819213390350342,0.36402428150177,-2.046443462371826,2.6094820499420166,-0.0603227242827415,0.8549318909645081,-0.5152207612991333,-0.2629957497119903,0.2657650113105774,0.3701860308647156,0.6444725532016666,-0.386921276697957,0.304436438589302,-0.5850344876892299,-1.025419580361776,-0.1165506873143241,-1.539844957099928,3.3361416473490535,backhand
1761072570860259328,3.829259395599365,0.2871057987213135,-2.0721375942230225,2.6491904258728027,-0.0483914762735366,0.854730486869812,-0.5168113708496094,-0.2902925908565521,0.2712917923927307,0.3776817917823791,0.6557722852719556,-0.3878125942860164,0.3019862468316718,-0.5730343803098183,-1.0250314333232031,-0.0933624782926095,-1.4888934393593451,3.3755583036866508,backhand
1761072570870305024,3.8393051624298096,0.3205170333385467,-2.1327641010284424,2.665205478668213,-0.036481749266386,0.8542733192443848,-0.5185422897338867,-0.3276539742946625,0.2697347998619079,0.379153311252594,0.6669278433161979,-0.3886602855093475,0.2994528862946939,-0.5607836715876465,-1.0241512761506746,-0.0702386954708456,-1.437802597445442,3.428517773443629,backhand
1761072570880350976,3.849351167678833,0.3471430838108063,-2.210581064224243,2.6896770000457764,-0.0248198304325342,0.8533812165260315,-0.5206961035728455,-0.3503479957580566,0.3019837141036987,0.4022269248962402,0.678163909478832,-0.3895168479856474,0.2965275308263075,-0.5481256740690436,-1.0224375929822158,-0.0476305824447568,-1.3862242043487218,3.4987911236196583,backhand
1761072570890396160,3.85939621925354,0.4071014821529388,-2.291515588760376,2.716184139251709,-0.0134669803082942,0.8519384860992432,-0.5234686136245728,-0.3600986897945404,0.3360039591789245,0.4085241556167602,0.6893501455946123,-0.3902230803008496,0.2932432961302981,-0.5352856091073195,-1.0196761920250144,-0.0257207594929892,-1.334884684255388,3.576930470197244,backhand
1761072570900442112,3.869442224502563,0.4265460968017578,-2.352874994277954,2.7177248001098633,-0.0024809851311147,0.8499417304992676,-0.526870846748352,-0.3892273902893066,0.3001742362976074,0.383865475654602,0.7007090607358042,-0.3909019821853562,0.289413571660001,-0.5219600151446974,-1.0158747192687654,-0.0047088709175985,-1.28308284230997,3.619943425045134,backhand
1761072570910488064,3.879488229751587,0.3882197439670563,-2.390905380249023,2.70125412940979,0.0080256536602973,0.8476943373680115,-0.5304243564605713,-0.4351038932800293,0.2592087388038635,0.3854200839996338,0.7118037586410569,-0.3915980056228962,0.2853749029057923,-0.5084757802611436,-1.0116237135795274,0.0151294750775777,-1.232201966993923,3.628211264323374,backhand
1761072570920534016,3.8895342350006104,0.3204194903373718,-2.4256465435028076,2.686016082763672,0.0180703457444906,0.8454470634460449,-0.5337534546852112,-0.4676858484745025,0.2336239218711853,0.3898172974586487,0.7226823613887401,-0.3925353871220466,0.281139208758044,-0.4945775089463334,-1.007401711506296,0.0338423070225097,-1.181656606791586,3.633333483271289,backhand
1761072570930580224,3.899580240249634,0.2855600714683532,-2.4799387454986572,2.68021297454834,0.0276445318013429,0.8432106375694275,-0.5368719696998596,-0.4879716634750366,0.2192740440368652,0.3708869218826294,0.733196762218226,-0.3936286199331671,0.2768041147399198,-0.4804772951421195,-1.003227907740255,0.051446414637287,-1.1319920668212615,3.662674204018114,backhand
1761072570940625152,3.909625291824341,0.2431202530860901,-2.5445611476898193,2.6914987564086914,0.0367769487202167,0.8409087061882019,-0.5399259328842163,-0.5038942098617554,0.2035400867462158,0.3587278127670288,0.743515399850758,-0.394883186130986,0.2722210815575833,-0.465991204268678,-0.9989601919188928,0.0680097585991433,-1.082581796641198,3.711881523909769,backhand
1761072570950671104,3.919671297073364,0.1831714212894439,-2.5914087295532227,2.696000814437866,0.0455373562872409,0.838651180267334,-0.5427619814872742,-0.5269521474838257,0.2051873207092285,0.3557808399200439,0.7534555446250292,-0.3962598740570275,0.2675763904055134,-0.4513155343304008,-0.994802043154326,0.0837032809640537,-1.0338952974583453,3.7439780133744747,backhand
1761072570960717312,3.929717302322388,0.1811993569135666,-2.6444170475006104,2.6816258430480957,0.0538461506366729,0.8363301753997803,-0.5455752611160278,-0.5528542995452881,0.1991006731986999,0.3517581820487976,0.7631331541909782,-0.3977384418234609,0.2627099062772356,-0.4363660779902345,-0.9905546233435828,0.0983774949198574,-0.9856924111181494,3.770529391234226,backhand
1761072570970763264,3.939763307571411,0.1617966294288635,-2.69791579246521,2.677306890487671,0.0616598837077617,0.8338236808776855,-0.5485764741897583,-0.5670157074928284,0.1986317634582519,0.3591843843460083,0.772493243630194,-0.3991680749841603,0.2576366032470306,-0.4213578291063884,-0.985998450935008,0.1119300127726636,-0.9385104757074948,3.8043264789421642,backhand
1761072570980809216,3.9498093128204346,0.1508140861988067,-2.7545769214630127,2.6621463298797607,0.0689342096447944,0.8312125205993652,-0.5516644716262817,-0.5625407695770264,0.23232501745224,0.3683149218559265,0.7816587481222708,-0.4006902696822291,0.2522202747366577,-0.4060070634688019,-0.9812851380629352,0.1243124243142562,-0.8916502319533736,3.833726905576988,backhand
1761072570990854144,3.9598543643951416,0.1889601349830627,-2.8071823120117188,2.620070695877075,0.0755142122507095,0.8283577561378479,-0.5550865530967712,-0.5603469610214233,0.2282218337059021,0.349977970123291,0.7905328894197851,-0.4021287044578431,0.2464735556893094,-0.3906419651988328,-0.9761697742157274,0.1352103803085441,-0.8460478164580605,3.844573957784927,backhand
1761072571000900352,3.969900369644165,0.1668571978807449,-2.8478076457977295,2.58646821975708,0.081294409930706,0.8252984881401062,-0.5588145852088928,-0.5663255453109741,0.1906318068504333,0.3401256203651428,0.7991999630901516,-0.4035671072801428,0.2402629527135265,-0.3750824473860406,-0.9707305400358052,0.1444631062798265,-0.8013189203709816,3.850671053694665,backhand
1761072571010946304,3.979946374893189,0.1082825735211372,-2.870877265930176,2.562725782394409,0.0865152105689048,0.8223652839660645,-0.5623437762260437,-0.5760782361030579,0.1776195168495178,0.3525811433792114,0.807428982624958,-0.4050967994015696,0.2339331067743376,-0.3594863420438233,-0.9655558625054734,0.1526506861157873,-0.757625302562339,3.84983438962147,backhand
1761072571020992256,3.989992380142212,0.0956562906503677,-2.8964157104492188,2.52889084815979,0.0911626368761062,0.8195176720619202,-0.5657563805580139,-0.5910558104515076,0.1361098289489746,0.3426576852798462,0.8153354537673422,-0.4067377208355915,0.2273460556416822,-0.3436661363369887,-0.9605687922130696,0.1597608394710915,-0.7144494494433624,3.846253113821864,backhand
1761072571031037184,4.00003719329834,0.0410471074283123,-2.8908345699310303,2.5138542652130127,0.0953776389360427,0.8167436122894287,-0.5690633058547974,-0.6147715449333191,0.0772230625152587,0.3069173097610473,0.8228043658308983,-0.4083614204351833,0.2207018538833966,-0.3279096006880905,-0.9557446539081068,0.1660611446155325,-0.672322099241919,3.8311972857667107,backhand
1761072571041083136,4.010083198547363,-0.0312307178974151,-2.871327638626098,2.474287271499634,0.0993193611502647,0.8143032193183899,-0.5718793869018555,-0.6398620009422302,0.0469180941581726,0.2866010665893554,0.8298503958675625,-0.4101911728188003,0.2140175750429239,-0.311910388939244,-0.951527755019174,0.1719567196653383,-0.6302955831535406,3.790461089100324,backhand
1761072571051129088,4.020129203796387,-0.0532571896910667,-2.8702900409698486,2.4214327335357666,0.1027908474206924,0.8120708465576172,-0.5744346380233765,-0.6503677368164062,0.0094013214111328,0.2808402776718139,0.8363951991753216,-0.4120705770547805,0.2073174421616497,-0.2960752255124419,-0.9476920114581692,0.1770685704305654,-0.5894710438734528,3.7556274749478256,backhand
1761072571061175040,4.03017520904541,-0.0809210091829299,-2.8874566555023193,2.389589309692383,0.1057590469717979,0.8099583983421326,-0.5768728852272034,-0.6382602453231812,0.0061274170875549,0.2786551713943481,0.8425843622786953,-0.4140024059733532,0.2004134581321215,-0.2801571177687736,-0.9440812150460656,0.1813181258089168,-0.5492387638997859,3.7488786611636207,backhand
1761072571071220992,4.040221214294434,-0.0782527849078178,-2.9234611988067627,2.363462448120117,0.1082346364855766,0.8078874349594116,-0.5793126225471497,-0.6148416996002197,0.0285230278968811,0.2994359135627746,0.8484126592332227,-0.415887301389177,0.1933428401120608,-0.2642956290631262,-0.9405586131408514,0.1847033980412116,-0.509893179250147,3.760146755506817,backhand
1761072571081266176,4.050266265869141,-0.0217128805816173,-2.9940757751464844,2.3204050064086914,0.1099869385361671,0.8056313395500183,-0.5821177363395691,-0.5979934930801392,0.0502799153327941,0.3167521357536316,0.8540335399853793,-0.4176169173511549,0.1858419991816793,-0.2483659729007403,-0.9367404435738134,0.1867413582089679,-0.4713382102288951,3.7880391484604132,backhand
1761072571091312128,4.060312271118164,0.0283476263284683,-3.034080743789673,2.269050359725952,0.1108388379216194,0.8031034469604492,-0.5854396820068359,-0.5993489623069763,0.0780916213989257,0.3174800872802734,0.8594242646845043,-0.4190785573688091,0.1779137966591209,-0.232615138685273,-0.9324856130522168,0.187111151945613,-0.4342921528370371,3.7888044397575107,backhand
1761072571101358080,4.0703582763671875,0.046386245638132,-3.044584274291992,2.21427845954895,0.110949695110321,0.8003581166267395,-0.5891664028167725,-0.618029773235321,0.0752216577529907,0.3133637905120849,0.8645822725489901,-0.4202841618729324,0.169640877870111,-0.21698092937906,-0.9278923595203684,0.1861365087903356,-0.3984359256856919,3.7649268496841968,backhand
1761072571111404288,4.080404281616211,-0.0750027671456337,-2.9921398162841797,2.1739256381988525,0.1106421649456024,0.7980063557624817,-0.5924054980278015,-0.6524817943572998,0.0269295573234558,0.2881146669387817,0.8692382841527376,-0.4215987843103227,0.1614054718686152,-0.2015630409999258,-0.9239798119282496,0.1846403554801687,-0.3635806269309467,3.699253813364381,backhand
1761072571121450240,4.090450286865234,-0.1462696939706802,-2.9204344749450684,2.0740084648132324,0.1100798919796943,0.7963690161705017,-0.5947089195251465,-0.7019377946853638,-0.0276312828063964,0.2519659996032715,0.8732928193304675,-0.4232456870283906,0.1533252327917874,-0.1863170253258238,-0.9212678031711186,0.1830272737184377,-0.3293802967015547,3.584946785928474,backhand
1761072571131495168,4.100495338439941,-0.2295326292514801,-2.878582000732422,1.9956324100494385,0.108982615172863,0.7952677607536316,-0.5963824987411499,-0.7246900200843811,-0.0842692255973815,0.2441638708114624,0.8767820024798284,-0.4250707939887822,0.1453395330319655,-0.1715944303853826,-0.9194490994465722,0.1807451516940781,-0.2968609117709905,3.5101949061087048,backhand
1761072571141541120,4.110541343688965,-0.3100062608718872,-2.8492431640625,1.9539724588394165,0.1076194867491722,0.7948383688926697,-0.5972018241882324,-0.7134239673614502,-0.0736927390098571,0.2404208779335022,0.8797612136014121,-0.4272354948155636,0.137364218213437,-0.1569110413025943,-0.918741161078775,0.1782926948901609,-0.2646289091980253,3.468760421193659,backhand
1761072571151587328,4.120587348937988,-0.251780241727829,-2.860403299331665,1.8718485832214355,0.1058446168899536,0.7946513295173645,-0.5977676510810852,-0.6998387575149536,-0.0737650990486145,0.2162063717842102,0.8823695618522119,-0.4294070781966678,0.1293280104499208,-0.1425053143283494,-0.9184330082469054,0.1752500418718724,-0.2334163955565779,3.4276985636808983,backhand
1761072571161633280,4.130633354187012,-0.1980229020118713,-2.9030566215515137,1.7875969409942627,0.1032182052731514,0.794256865978241,-0.5987502932548523,-0.6925431489944458,-0.1071536540985107,0.2125351428985595,0.884813487709637,-0.4312860375073367,0.1209016403980887,-0.1283748973196173,-0.9177835181432622,0.1707115202882884,-0.2036646706328232,3.4150334758399277,backhand
1761072571171679232,4.140679359436035,-0.2171617001295089,-2.9493579864501953,1.7083457708358765,0.0995780006051063,0.7938242554664612,-0.5999394059181213,-0.6887961626052856,-0.1183176040649414,0.1924382448196411,0.8870426345922426,-0.4329837723982391,0.1120506191234503,-0.1145647491907102,-0.9170717760830478,0.1644805805748896,-0.1755544945861023,3.415306283332948,backhand
1761072571181724160,4.150724172592163,-0.157632365822792,-2.973039150238037,1.5826165676116943,0.0948885083198547,0.7934167385101318,-0.6012371182441711,-0.6906679272651672,-0.1656396389007568,0.1780040860176086,0.8890600591638659,-0.4345490940668987,0.1027059852001817,-0.1009495465718633,-0.9164019963596955,0.1565310125863316,-0.1488021342201703,3.3717183974469194,backhand
1761072571191770112,4.1607701778411865,-0.2780000567436218,-3.0144147872924805,1.4812090396881104,0.0889733582735061,0.7932238578796387,-0.6023948788642883,-0.68598872423172,-0.2303271889686584,0.2227256894111633,0.8907771371868897,-0.4360795421469128,0.0929365456812718,-0.0878258857074163,-0.9160851611838186,0.1466392103155443,-0.1241607820361596,3.370157379211066,backhand
1761072571201816064,4.17081618309021,-0.3951321542263031,-3.025446891784668,1.374039649963379,0.0821145996451377,0.794162392616272,-0.6021323204040527,-0.681327223777771,-0.2205234766006469,0.1914420127868652,0.891879192062924,-0.4382547809279881,0.0828647898267409,-0.0749520254617645,-0.917628048945119,0.1355369099646863,-0.1006535862467884,3.3462581003240786,backhand
1761072571211862016,4.180862188339233,-0.2290606349706649,-2.9849331378936768,1.2086138725280762,0.0742550641298294,0.7950975298881531,-0.6019188165664673,-0.711156964302063,-0.2723618149757385,0.09726482629776,0.8927588221085079,-0.4402024181925653,0.0725425982882157,-0.0627791014869637,-0.9191683308145884,0.1227437641407596,-0.079602248948787,3.2284736494288238,backhand
1761072571221907968,4.190908193588257,-0.143203392624855,-2.920361042022705,1.0645020008087158,0.0654437020421028,0.7953557372093201,-0.6025996208190918,-0.7486712336540222,-0.326636254787445,0.0557093620300293,0.8936789334605407,-0.4414274950743082,0.0619833971359336,-0.0513592947473978,-0.9195942666608276,0.1081783193622651,-0.061203793210826,3.111620210943001,backhand
1761072571231953152,4.200953245162964,-0.1135405749082565,-2.8569071292877197,0.8986172080039978,0.0558102205395698,0.7955881357192993,-0.6032617688179016,-0.7704098224639893,-0.3060251474380493,0.0539759397506713,0.8944083191348962,-0.4424127384287963,0.0513816370454899,-0.0408013850718795,-0.9199777682564032,0.0922515095421164,-0.0454443177775712,2.9970523342188065,backhand
1761072571241999104,4.210999250411987,0.0238113962113857,-2.7927660942077637,0.74616938829422,0.0452493987977504,0.7954522967338562,-0.6043245792388916,-0.7793955206871033,-0.3438836932182312,0.0176393985748291,0.8950963032397687,-0.4429282494080063,0.0406482486707621,-0.0310646178777656,-0.9197536001918062,0.0747365302798464,-0.0323531823838687,2.8908265592341222,backhand
1761072571252045056,4.221045255661011,0.1347232609987259,-2.7293543815612793,0.5940640568733215,0.0338042974472045,0.7946871519088745,-0.606077253818512,-0.7743743658065796,-0.3968600034713745,-0.032533586025238,0.8958481918626844,-0.4427975630411519,0.0298610888037157,-0.0222423403018812,-0.9184920238198034,0.0557178262696874,-0.0220878924612936,2.796504568362203,backhand
1761072571262091264,4.231091260910034,0.1060933843255043,-2.672996997833252,0.4640195071697235,0.0215359311550855,0.7937873005867004,-0.6078139543533325,-0.7657833695411682,-0.4057868719100952,-0.0749558210372924,0.8964971704202145,-0.4424167446619986,0.0189852953851734,-0.0141321468081174,-0.9170110873874004,0.0354169635441415,-0.0140420580582189,2.7150474875510464,backhand
1761072571272137216,4.241137266159058,0.1128290519118309,-2.5809760093688965,0.316568523645401,0.0086055258288979,0.7930793762207031,-0.6090574264526367,-0.7515406608581543,-0.4368935227394104,-0.065396249294281,0.8969289838058837,-0.4420457762211429,0.0081744928876993,-0.0068526312008781,-0.9158479458890856,0.0141283120234565,-0.0083164569318551,2.6027645275852644,backhand
1761072571282182144,4.251182317733765,-0.0229077748954296,-2.521777868270874,0.187559574842453,-0.0050017242319881,0.7926986813545227,-0.6095930933952332,-0.7204774022102356,-0.5189865827560425,-0.027827501296997,0.8971044655766547,-0.4418101627327285,-0.0026891113327276,-0.0002001951616106,-0.9152231848544706,-0.0082048367439178,-0.0044870299498217,2.528846965944467,backhand
1761072571292228096,4.261228322982788,-0.126658409833908,-2.433800458908081,0.0306895449757576,-0.0192848797887563,0.7933653593063354,-0.6084402203559875,-0.679125189781189,-0.575179934501648,-0.1437875032424926,0.8967650811662332,-0.4422621731527878,-0.0135665948375941,0.0057061378406023,-0.9163176233198734,-0.0316849939091916,-0.0029008095541984,2.43728719578421,backhand
1761072571302274304,4.2712743282318115,0.2096150517463684,-2.3226983547210693,-0.1954972594976425,-0.0344516485929489,0.793132483959198,-0.6080740094184875,-0.6528041958808899,-0.647105872631073,-0.1902963519096374,0.896619592936761,-0.4420045968498626,-0.0243912053234804,0.0105062423165304,-0.915935145626365,-0.0565964950776495,-0.0044690206093939,2.340317349295536,backhand
1761072571312320256,4.281320333480835,0.3703786134719848,-2.2311575412750244,-0.3468801081180572,-0.0506124980747699,0.7911364436149597,-0.6095420718193054,-0.6371926665306091,-0.6704699397087097,-0.2162941694259643,0.8969774160422045,-0.4404428346673167,-0.0352005984075603,0.0142308872992328,-0.9126647652943152,-0.0828436035746928,-0.0089565912093961,2.28813681861768,backhand
1761072571322366208,4.291366338729858,0.491623193025589,-2.001209259033203,-0.4627833962440491,-0.0668147653341293,0.7883553504943848,-0.6115813255310059,-0.6344486474990845,-0.586542546749115,-0.3150238990783691,0.8974955805109378,-0.4383289531857902,-0.0455748095202468,0.0171008726919107,-0.908131104026235,-0.1088176325012927,-0.0150481903178582,2.112037010613231,backhand
1761072571332411392,4.301411390304565,0.8960676193237305,-1.787225365638733,-0.6371999382972717,-0.0827633738517761,0.7837315201759338,-0.6155608296394348,-0.6534731984138489,-0.5596715211868286,-0.4013611674308777,0.8985690594940162,-0.4349447998984279,-0.0551599085811397,0.018814568102962,-0.9006511409842691,-0.1336504895648613,-0.0228174027604021,2.098364946178106,backhand
1761072571342457344,4.311457395553589,1.1679916381835938,-1.661078929901123,-0.7834696173667908,-0.099062442779541,0.7765132784843445,-0.6222649812698364,-0.6463141441345215,-0.5646908283233643,-0.4840124249458313,0.9004156940688135,-0.4297963725758785,-0.0643629033715109,0.019595670383341,-0.8891131797753179,-0.1578717706198292,-0.0318056468011609,2.176513799534733,backhand
1761072571352503040,4.321503162384033,1.21533465385437,-1.5407350063323977,-0.8667815327644348,-0.1155705004930496,0.7681028842926025,-0.629810631275177,-0.6024165153503418,-0.5439512729644775,-0.4760091304779053,0.9025084129222396,-0.4239481426582088,-0.0732302558639481,0.0195912422164496,-0.8758731158868593,-0.1814814108772292,-0.0417551226136477,2.1452768833273894,backhand
1761072571362548992,4.331549167633057,1.406443476676941,-1.4402248859405518,-0.992259919643402,-0.1321159452199936,0.7586228847503662,-0.6379943490028381,-0.53689044713974,-0.5910661220550537,-0.3012603521347046,0.904786118382918,-0.4175147118881136,-0.081757468706178,0.0189575433383723,-0.8611968237227072,-0.2041939906904053,-0.0521545397945287,2.244306289992595,backhand
1761072571372594944,4.34159517288208,1.3043826818466189,-1.4632476568222046,-1.1028282642364502,-0.1495211124420166,0.7482314109802246,-0.6463693380355835,-0.4714658260345459,-0.6737990379333496,-0.315559983253479,0.9071236253320596,-0.4106606814135378,-0.0904054465154444,0.0176504806404518,-0.8453922622919586,-0.2273260602487796,-0.0636957232437972,2.249163859369929,backhand
1761072571382640128,4.351640224456787,1.218147039413452,-1.2439953088760376,-1.275322675704956,-0.1671771258115768,0.7382779717445374,-0.6534503698348999,-0.4411907792091369,-0.6839261651039124,-0.3464885950088501,0.9091104771301404,-0.4043479455395971,-0.0988815191797261,0.0155946468881017,-0.830513692195306,-0.2504652108897203,-0.0765920312999894,2.1582063074007998,backhand
1761072571392686080,4.3616862297058105,1.3471218347549438,-0.9830837845802308,-1.4383955001831057,-0.184604600071907,0.7273982167243958,-0.6609182953834534,-0.4803734123706817,-0.7286036610603333,-0.3952798247337341,0.9112136477171408,-0.3977097770253948,-0.1066198780755464,0.0121978012015463,-0.8145227855877953,-0.2723736985814217,-0.0913196850151647,2.2023107365049834,backhand
1761072571402732032,4.371732234954834,1.434207558631897,-0.6819518208503723,-1.4912371635437012,-0.2008095681667328,0.7152596712112427,-0.66938716173172,-0.5553244352340698,-0.7417641878128052,-0.6225440502166748,0.913581857911434,-0.3904849504787798,-0.1132604678570384,0.007856705711853,-0.7969955579088926,-0.2914477826523092,-0.1062261285866472,2.178485227200742,backhand
1761072571412778240,4.381778240203857,1.5630614757537842,-0.3946656882762909,-1.5251258611679075,-0.2151915282011032,0.7020339965820312,-0.6788525581359863,-0.6102021336555481,-0.6761856079101562,-0.6230730414390564,0.9161979763749164,-0.3827707054833187,-0.1185761494889058,0.0027260727877305,-0.778249637348363,-0.3069729138941999,-0.1207460507224782,2.2192185730322618,backhand
1761072571422824192,4.391824245452881,1.7586039304733276,-0.3350006341934204,-1.6015722751617432,-0.2283520996570587,0.686966061592102,-0.6898788809776306,-0.6068224310874939,-0.6271211504936218,-0.5278945565223694,0.9192015431703984,-0.3740514657347346,-0.1230693283393852,-0.0028085357058516,-0.7573057805948051,-0.3196519561447086,-0.1342034432763899,2.402071389811925,backhand
1761072571432869120,4.401869297027588,1.807159662246704,-0.3983862698078155,-1.8311346769332888,-0.2427523583173751,0.6707210540771484,-0.7008599042892456,-0.5680539608001709,-0.6030178070068359,-0.3529578447341919,0.922144468481191,-0.3649140872949439,-0.1280927359353971,-0.0089231183699587,-0.7351804941829074,-0.3334315913167684,-0.1487767088605683,2.6033808537919665,backhand
1761072571442916608,4.411916732788086,2.3838038444519043,-0.4553080201148987,-2.3460302352905273,-0.2593402564525604,0.6505150198936462,-0.7138437032699585,-0.5008220672607422,-0.691195011138916,0.213858962059021,0.9255566232421628,-0.3537802977674252,-0.1338568776473374,-0.0163321737563624,-0.7082623867156635,-0.3484749245562509,-0.1652616276439115,3.3754531587480154,backhand
1761072571452962560,4.421962738037109,2.351980686187744,-0.4522531032562256,-2.7530198097229004,-0.279269278049469,0.6260910630226135,-0.7280237674713135,-0.5786713361740112,-0.764717161655426,0.0118830800056457,0.9291658884063628,-0.3408118638391573,-0.1408381657413661,-0.0257403733830802,-0.6765299949413941,-0.3662882428555044,-0.1855225594723389,3.6490360494700202,backhand
1761072571463008768,4.432008743286133,2.0057015419006348,-0.310185819864273,-3.008124828338623,-0.2998403012752533,0.6016514301300049,-0.7403454184532166,-0.7175699472427368,-0.6291783452033997,-0.0368151664733886,0.9320976999769864,-0.3286027979454879,-0.1478089717022792,-0.0369678974521885,-0.6455670239207347,-0.3848097637337957,-0.2094202915793999,3.6287558337389862,backhand
1761072571473054720,4.442054748535156,1.788275957107544,-0.2446475476026535,-3.2681803703308105,-0.3204053938388824,0.5776762962341309,-0.7507532835006714,-0.8231035470962524,-0.6106657385826111,0.0505121946334838,0.9342846291693409,-0.31740540514112,-0.15452238276112,-0.0498882786878844,-0.6158790342118216,-0.4033761244347844,-0.2365754209553141,3.733468394714562,backhand
1761072571483099648,4.452099800109863,1.3634188175201416,-0.2225715667009353,-3.628495454788208,-0.3417756855487823,0.5541702508926392,-0.7590024471282959,-0.882864236831665,-0.6906753778457642,0.0436856746673584,0.935606066348528,-0.3072664185811183,-0.1615119954189316,-0.0643618723212309,-0.5873657884108736,-0.4230999690974887,-0.2670856059031389,3.88258010087241,backhand
1761072571493145600,4.462145805358887,0.6608009934425354,-0.2375894039869308,-4.024397850036621,-0.364381730556488,0.5327084064483643,-0.763837456703186,-0.9233226776123048,-0.787286102771759,0.1364113688468933,0.935585361492443,-0.299343728396415,-0.1687441962191267,-0.0812319183541244,-0.5617976312945214,-0.4451122338232734,-0.3036203578677883,4.0852031446674575,backhand
1761072571503191808,4.47219181060791,-0.2198957651853561,-0.4829303920269012,-4.281604290008545,-0.3890764713287353,0.5154690146446228,-0.7634861469268799,-0.971931219100952,-0.8943142890930176,0.2757084965705871,0.9336706032773984,-0.2949783829732552,-0.1767616079322261,-0.100011135509807,-0.541554912245863,-0.4713021629029847,-0.3465295551855224,4.314361042762797,backhand
1761072571513237760,4.482237815856934,-0.1788841634988784,-0.385216623544693,-4.801233768463135,-0.4152964353561401,0.4989815950393677,-0.7606222033500671,-0.9983235597610474,-1.0624428987503052,0.7789938449859619,0.9304493003552994,-0.2921778348236913,-0.1852592733421116,-0.1207273440903764,-0.5224232317290644,-0.4997636586897139,-0.3942988064005907,4.81998310063807,backhand
1761072571523283712,4.492283821105957,0.1209304258227348,-0.2707586586475372,-5.168259620666504,-0.4426893889904022,0.4777202904224396,-0.7588210701942444,-1.245222568511963,-1.2265605926513672,0.8711410164833069,0.92669511723738,-0.2878694513961581,-0.1942180547711398,-0.143689344471739,-0.4980579200643124,-0.528117492006714,-0.4449607987000292,5.1767597902292275,backhand
1761072571533328896,4.502328872680664,0.0774729624390602,-0.031729020178318,-5.0948100090026855,-0.4680899381637573,0.4530858993530273,-0.758686363697052,-1.6391030550003052,-0.9914464950561525,0.769855797290802,0.9226992303318092,-0.282225170211771,-0.2024988302712498,-0.1672404298019633,-0.4702239175958912,-0.5528071640667045,-0.494300017864318,5.09549779888722,backhand
1761072571543374848,4.5123748779296875,-0.0751907154917717,0.3775598108768463,-5.348476886749268,-0.4896397590637207,0.428347498178482,-0.7594546675682068,-2.077727794647217,-0.5185880064964294,0.7321566939353943,0.9181642025192984,-0.2768455941380562,-0.2088760141653391,-0.1915775728447738,-0.442663224739862,-0.5726583611133748,-0.5437092502887796,5.36231387206835,backhand
1761072571553420800,4.522420883178711,0.13888880610466,0.7893921136856079,-6.06964111328125,-0.5087568759918213,0.3996787071228027,-0.7625112533569336,-2.4667375087738037,-0.2419333159923553,0.5523214340209961,0.9129665513329192,-0.27010496467396,-0.213980591947488,-0.2185125638706956,-0.4111663065567029,-0.5883802838066798,-0.5960416126443525,6.122333971096665,backhand
1761072571563466752,4.532466888427734,0.3124376535415649,0.979998767375946,-7.028759479522705,-0.5268946290016174,0.3636661469936371,-0.768198549747467,-2.573676109313965,-0.4313846528530121,0.392557680606842,0.9066011474455644,-0.2607622882614349,-0.2188692493967674,-0.24934664805817,-0.3722005117763943,-0.6011887635997732,-0.6533926939338484,7.103624053424366,backhand
1761072571573512704,4.542512893676758,0.008617328479886,0.887571394443512,-7.871440887451172,-0.5451272130012512,0.321829617023468,-0.7741201519966125,-2.4368062019348145,-0.838797390460968,0.1956593990325927,0.8979597383526078,-0.2501947842060468,-0.2243713581996461,-0.2841273236034982,-0.3276612830214889,-0.6135321577898885,-0.7175287822726044,7.921328100970356,backhand
1761072571583557632,4.552557706832886,-1.2418938875198364,0.8521119952201843,-8.575667381286621,-0.5633081197738647,0.2803814709186554,-0.7772194743156433,-2.406616687774658,-1.385239839553833,0.1511056423187255,0.8857288624244702,-0.2419991068190028,-0.2298405843262736,-0.322636028676455,-0.284191507738829,-0.62715976324391,-0.7913604392383283,8.70692059885242,backhand
1761072571593603584,4.562603712081909,-3.07365345954895,1.0921932458877563,-9.401773452758787,-0.5796279907226562,0.2457767874002456,-0.7769331932067871,-2.7753372192382812,-1.719974160194397,0.3709731101989746,0.8687632445720374,-0.2394442043350779,-0.2328086740097367,-0.3656733551735767,-0.2483209819307339,-0.6409658014149258,-0.8796097776752156,9.951561472088686,backhand
1761072571603649536,4.572649717330933,-4.5521135330200195,1.361281156539917,-9.918323516845703,-0.5925779342651367,0.2181268185377121,-0.7754173278808594,-3.421292304992676,-1.762453556060791,0.4906883239746094,0.8465813508284513,-0.242034370352554,-0.2317556820050142,-0.4135319317960175,-0.2198946577442125,-0.6525306209302215,-0.9834362328231422,10.997634536093168,backhand
1761072571613695744,4.582695722579956,-6.184237480163574,1.7566044330596924,-9.753178596496582,-0.6013414263725281,0.2009072452783584,-0.7733205556869507,-3.937690496444702,-1.3410286903381348,0.5049185156822205,0.8200948055827764,-0.2498208431956555,-0.2256751161495877,-0.462714528370713,-0.20228395822393,-0.6609383275764332,-1.0969941304566044,11.681393113856922,backhand
1761072571623741696,4.5927417278289795,-6.983028411865234,2.487598180770874,-9.743486404418944,-0.6043051481246948,0.1934420019388198,-0.7729136347770691,-4.431858062744141,-0.3262239992618561,0.6802775263786316,0.7900503037959148,-0.2607638682452339,-0.2134136588028286,-0.5121301672130104,-0.1946692074592671,-0.6635775749230243,-1.2175080548715829,12.242808412410465,backhand
1761072571633786624,4.6027867794036865,-7.374663352966309,3.477813482284546,-9.681272506713867,-0.6004400849342346,0.189741313457489,-0.7768332958221436,-4.964348793029785,0.631608784198761,0.823937177658081,0.7574583554319247,-0.2704488959431489,-0.1960631278145408,-0.5609576728423684,-0.190898673808317,-0.6580173971889107,-1.3402401560216386,12.657325291561335,backhand
1761072571643832576,4.61283278465271,-7.848593235015869,4.652568340301514,-9.437439918518066,-0.5870546698570251,0.1924471706151962,-0.7863401174545288,-5.195202350616455,1.608105182647705,0.999795377254486,0.7225989937664524,-0.278024208706157,-0.1718501293381335,-0.609114613237352,-0.1936553319998573,-0.6412996104292887,-1.4652677491296946,13.126769600535813,backhand
1761072571653878784,4.622878789901733,-7.725658893585205,5.804075241088867,-9.110248565673828,-0.5636050701141357,0.2012695074081421,-0.8011490702629089,-4.950264930725098,2.669808864593506,1.1803300380706787,0.6864185792940344,-0.281753206031161,-0.141564798850685,-0.6552892042914982,-0.2026537725938004,-0.6130683491787563,-1.5887421383104845,13.280426336251974,backhand
1761072571663924736,4.632924795150757,-7.449899196624756,7.010127067565918,-8.678265571594238,-0.5296937823295593,0.2144795060157776,-0.820623517036438,-4.4735260009765625,3.649320602416992,1.27364182472229,0.6495846501903906,-0.2798404190543535,-0.1066657031717548,-0.6988214871941159,-0.2161589082646976,-0.5731891920256718,-1.7077246685461418,13.41473715263957,backhand
1761072571673970688,4.64297080039978,-6.525311470031738,7.829753398895264,-8.136345863342285,-0.4863113760948181,0.2297940403223037,-0.8430278301239014,-3.9106764793396,4.480990886688232,1.3350322246551514,0.6128192224200897,-0.2713770655015109,-0.0695741993293809,-0.7388954505731713,-0.2318660603478549,-0.5232330719827941,-1.819143153338913,13.041658333063584,backhand
1761072571684015872,4.653015851974487,-6.036715030670166,8.472211837768555,-7.296358585357666,-0.4347773194313049,0.2475446164608001,-0.8658466339111328,-3.2105016708374023,4.874693393707275,1.2751483917236328,0.577426567761283,-0.2570286602362387,-0.0318270159197999,-0.7742751074840257,-0.250145178448171,-0.465359153618356,-1.9195942296641888,12.706579020006417,backhand
1761072571694061824,4.663061857223511,-6.092737197875977,8.92529010772705,-6.365852355957031,-0.3758104145526886,0.2728411555290222,-0.8856208324432373,-2.622663736343384,5.154160976409912,1.2356727123260498,0.5435253419286125,-0.2390063240860286,0.0080966165294651,-0.8046060024700034,-0.2763450080280458,-0.4013172916692651,-2.009935573036609,12.542181879055798,backhand
1761072571704107776,4.673107862472534,-6.118091106414795,9.18651008605957,-5.717102527618408,-0.312185674905777,0.3068118691444397,-0.8991143107414246,-2.094247341156006,5.23276948928833,1.2401940822601318,0.5106113331693211,-0.2189247686821211,0.0501475694515132,-0.8299597550637609,-0.3118415256820184,-0.3341912782540084,-2.0915311729000754,12.430135464224307,backhand
1761072571714153728,4.683153867721558,-5.720828533172607,9.508589744567873,-5.0947465896606445,-0.2447890788316726,0.3457179963588714,-0.9058461785316468,-1.5364456176757812,4.903641223907471,1.6036306619644165,0.4780903474674423,-0.1960398436521606,0.0929799809684724,-0.8510890787249435,-0.3530038667204095,-0.2639285162135847,-2.1653095275819467,12.210552847816594,backhand
1761072571724199680,4.693199872970581,-5.333460807800293,9.74103832244873,-4.7153825759887695,-0.1748299300670623,0.3858294785022735,-0.905853271484375,-1.0910086631774902,4.544300556182861,1.9622650146484375,0.4466470642096235,-0.1700460836552998,0.1347505199072169,-0.8680052463645779,-0.3961067556117062,-0.1906560957611633,-2.2294992581763964,12.065175698086415,backhand
1761072571734244864,4.703244924545288,-4.637444972991943,9.670610427856444,-4.509609699249268,-0.1053795367479324,0.4245356321334839,-0.8992578387260437,-0.5946784615516663,3.953821182250977,2.401226282119751,0.4149053211909051,-0.1416661038265542,0.1740741125580021,-0.8817497056907347,-0.4384489471775544,-0.1166529802224669,-2.28799279644783,11.634568387544812,backhand
1761072571744290816,4.7132909297943115,-4.955491065979004,9.069952011108398,-4.185688495635986,-0.0405246466398239,0.4637081325054168,-0.885060727596283,0.0104190595448017,2.7661197185516357,2.4733786582946777,0.38373597231492,-0.1135669934159068,0.2111212085887796,-0.8917830949052121,-0.482175942617135,-0.0457554593272773,-2.3401387453122315,11.150825501787141,backhand
1761072571754336768,4.723336935043335,-5.487102508544922,8.309242248535156,-3.567840337753296,0.0168397556990385,0.509346604347229,-0.860396683216095,0.68453049659729,1.702872633934021,2.4056999683380127,0.3535618316856223,-0.0886772094444479,0.2488734795491217,-0.8973250937374241,-0.5344253360819654,0.0195695851837614,-2.3855581431848707,10.577395017669573,backhand
1761072571764382720,4.733382940292358,-5.947345733642578,7.013820171356201,-2.4149162769317627,0.0659172385931015,0.558833122253418,-0.8266562223434448,1.4900214672088623,0.685032844543457,2.416820526123047,0.3277576919521889,-0.0678762322440948,0.2864693894088364,-0.8977210872493647,-0.5929780534499871,0.0795712436217447,-2.4171470027613755,9.50770294530649,backhand
1761072571774428672,4.743428707122803,-7.015183448791504,6.056882858276367,-0.928467869758606,0.1085894405841827,0.6123323440551758,-0.783107578754425,2.246253728866577,0.0108976364135742,2.239696264266968,0.308502723071016,-0.0515957907005291,0.325244668502145,-0.8924011663452418,-0.6590073027611388,0.1377861576922029,-2.428730730165236,9.314541393125827,backhand
1761072571784473600,4.75347375869751,-7.658689022064209,5.963706016540527,0.1752378493547439,0.1518377959728241,0.6690723896026611,-0.7275214195251465,2.104708194732666,0.0907237529754638,1.6601691246032717,0.2954138654174414,-0.036963765691383,0.3672505545523655,-0.8811874898553073,-0.7329599728754997,0.2057521458963904,-2.4154422734204384,9.708347711750697,backhand
1761072571794519552,4.763519763946533,-7.248196601867676,6.009884357452393,0.8612945079803467,0.1973354071378708,0.7204961776733398,-0.6647886037826538,1.2232577800750732,0.6199273467063904,0.9190611243247986,0.2849354368962561,-0.0205792310268668,0.4088791789166703,-0.8667214389604886,-0.8045176039085331,0.2885545856733633,-2.382881334676026,9.45499297719222,backhand
1761072571804565760,4.773565769195557,-6.390891075134277,6.280316352844238,1.5538066625595093,0.24543297290802,0.7612580060958862,-0.6002073287963867,0.6421860456466675,1.0993833541870115,0.300448477268219,0.2768226319276727,-0.0012342265460576,0.4470959768338411,-0.8505720367070349,-0.8652509176436499,0.388166866995319,-2.331260836826879,9.093963787625725,backhand
1761072571814611712,4.78361177444458,-6.286996841430664,6.179195880889893,2.612135410308838,0.2968384027481079,0.7916565537452698,-0.5340100526809692,0.4612029790878296,1.484649419784546,-0.443101704120636,0.2711063284587416,0.0212352447914508,0.4822281991266005,-0.8327702275804069,-0.913515624342023,0.5073362119675051,-2.2587008824914667,9.194130868132946,backhand
1761072571824657664,4.7936577796936035,-4.630794048309326,6.780516624450684,3.913587093353271,0.355869859457016,0.8088743090629578,-0.4680588543415069,0.3639329969882965,1.8230836391448977,-1.520390272140503,0.2698932189381663,0.0484042185048748,0.5134467883809921,-0.8131341896094681,-0.9422351311152044,0.650066969047887,-2.1606534110544224,9.095923435779925,backhand
1761072571834702848,4.8037028312683105,-3.037522554397583,7.1553053855896,4.479485034942627,0.4212229549884796,0.8089103102684021,-0.4101650416851043,-0.0402872860431671,1.6031990051269531,-1.6371829509735107,0.2697161838704979,0.0828118328884511,0.5367119153440333,-0.7951954059406783,-0.9422963261341248,0.798697928294041,-2.0640588939952256,8.97166231017399,backhand
1761072571844748800,4.813748836517334,-2.727952003479004,7.070616245269775,4.850167751312256,0.4862281680107116,0.798599362373352,-0.3547128140926361,-0.570075273513794,1.3478543758392334,-0.9613577127456664,0.270469135410559,0.1195464073555798,0.5552947398145957,-0.7773048326243814,-0.9249644088367336,0.9405322598492232,-1.9755125555441009,8.997747686895169,backhand
1761072571854794752,4.823794841766357,-2.995161294937134,7.517270088195801,5.500748157501221,0.5508744120597839,0.7805182337760925,-0.295514315366745,-0.9424454569816588,0.9999383091926576,-0.9901301860809326,0.2718693441158666,0.1583172043371711,0.5719951938397996,-0.7575250787688237,-0.895494363560016,1.07841885863303,-1.8927706925996175,9.784608886093805,backhand
1761072571864840704,4.833840847015381,-3.1167895793914795,7.387229919433594,5.589738368988037,0.6134262084960938,0.7560322284698486,-0.2283060997724533,-1.1694717407226562,0.6572215557098389,-0.8792683482170105,0.2740584704273135,0.1979787714290061,0.5887710544619019,-0.7341968869392976,-0.8572297342623607,1.2144986341757282,-1.812207065648124,9.773981696244126,backhand
1761072571874886656,4.843886852264404,-3.2566258907318115,7.006687164306641,5.953868865966797,0.6702373027801514,0.7251677513122559,-0.157841071486473,-1.2504832744598389,0.5556702613830566,-0.6787220239639282,0.2770787489611446,0.2366625645586467,0.60421046968065,-0.7086239811194306,-0.8112779428473266,1.3395103127611894,-1.7405310199643862,9.754375002211724,backhand
1761072571884931840,4.853931903839111,-2.7679364681243896,6.588301181793213,6.442306995391846,0.7226323485374451,0.6855374574661255,-0.0885489806532859,-1.2471990585327148,0.580560564994812,-0.4298836588859558,0.2822798372230897,0.2747145526404548,0.6166501634410158,-0.6816103003111056,-0.7553416570672812,1.4488674700023416,-1.6810708689507814,9.621356670265659,backhand
1761072571894977792,4.863977909088135,-1.726563572883606,6.195607662200928,6.750271320343018,0.7702507376670837,0.6372286677360535,-0.025569200515747,-1.2712576389312744,0.7089781165122986,-0.3653762340545654,0.2881925005696292,0.3132737020550008,0.6237587569635793,-0.6555378252256746,-0.6908968977155896,1.5376125660074405,-1.643186397069535,9.323772786451679,backhand
1761072571905023744,4.874023914337158,-0.340190440416336,5.833932399749756,6.922688007354736,0.8119711875915527,0.5829879641532898,0.0287731382995843,-1.3544821739196775,0.7872055172920227,-0.5629681348800659,0.2936287151695632,0.3520964739757327,0.6248316911345019,-0.6319775691075264,-0.6224014306951595,1.6062176617185642,-1.628349634852902,9.059476034946707,backhand
1761072571915069696,4.884069919586182,0.8840023875236511,5.54728889465332,7.128960609436035,0.8481826782226562,0.5244466066360474,0.0744437575340271,-1.4648513793945312,0.6501749753952026,-0.6741446256637573,0.2975790892504802,0.3919829247082456,0.6193313056254935,-0.6117391609084324,-0.5520650077427612,1.6583405346764828,-1.6363212302184225,9.076119967958896,backhand
1761072571925115904,4.894115924835205,1.6971055269241333,5.420578956604004,6.818472385406494,0.8777750134468079,0.4649148881435394,0.1156086549162864,-1.646817922592163,0.544545590877533,-0.4097523689270019,0.2996795486776702,0.4316433275438333,0.6094984528555396,-0.5936227014579204,-0.4835384678054624,1.701749079852801,-1.6583393666536077,8.874368093833246,backhand
1761072571935160576,4.904160737991333,2.543978691101074,5.473697662353516,6.3630852699279785,0.8992614150047302,0.4091289341449737,0.1547340601682663,-1.8632047176361084,0.3677113354206085,-0.209589347243309,0.2980388685430553,0.4704085130997035,0.596726792066638,-0.5777593481524473,-0.4214992280332415,1.7411956635893366,-1.6918400573074692,8.77052152565656,backhand
1761072571945206528,4.9142067432403564,2.4808387756347656,5.546825408935547,5.932363986968994,0.913239598274231,0.3575137853622436,0.1953901052474975,-1.8515942096710205,0.2073360681533813,-0.0168928056955337,0.293428476837528,0.5078596567032443,0.5829010391708703,-0.5623207868777135,-0.3656043543449205,1.7815712693662202,-1.7302146402165952,8.492041899436947,backhand
1761072571955252736,4.92425274848938,2.6942248344421387,5.279361724853516,5.459197044372559,0.9205936789512634,0.3105756640434265,0.2367500364780426,-1.6551058292388916,0.0620898306369781,0.228627860546112,0.28718165525694,0.5428428900415352,0.5689434184187893,-0.546947795555043,-0.3157985781659959,1.8225127352143544,-1.7695252054555253,8.058122613218238,backhand
1761072571965298688,4.934298753738403,2.5772249698638916,4.957980632781982,5.034262180328369,0.9227593541145324,0.2688151001930237,0.2761403620243072,-1.4631646871566772,-0.2750864923000335,0.2799967229366302,0.2801782784696204,0.5746193730380422,0.5548718374287304,-0.5323813424142726,-0.272162632864901,1.8615695086574091,-1.808959846698217,7.5211339703940725,backhand
1761072571975344640,4.944344758987427,2.651686191558838,4.390467166900635,4.63056755065918,0.92103773355484,0.2316652536392212,0.3130824565887451,-1.31767475605011,-0.4215914011001587,0.20972940325737,0.2727773521343646,0.6034940666989965,0.5406811814306346,-0.5187014958930508,-0.2337891520713148,1.8984663506661337,-1.8483104800417585,6.91012282404257,backhand
1761072571985389824,4.954389810562134,2.735948324203491,3.8050920963287354,4.175786018371582,0.9170653820037842,0.1999598145484924,0.3449740409851074,-1.2656066417694092,-0.4943781793117523,0.3611721694469452,0.2652482037765375,0.6289983937256471,0.5261635100999933,-0.5071058634402636,-0.2013169062688503,1.930593832742256,-1.8879774841377293,6.277047710945241,backhand
1761072571995435776,4.964435815811157,2.6444270610809326,3.3854336738586426,3.716839075088501,0.911529779434204,0.1734740734100341,0.3728547394275665,-1.24456787109375,-0.4685789942741394,0.4615417420864105,0.257613502984759,0.6514014717518313,0.5119604386523849,-0.4972002357969117,-0.1743561360797373,1.959073874499707,-1.9266015712226696,5.680585212069079,backhand
1761072572005481728,4.974481821060181,2.5188095569610596,2.9713637828826904,3.245473861694336,0.9048727750778198,0.1516751199960708,0.3977431952953338,-1.1767082214355469,-0.3967465758323669,0.6063613295555115,0.2500455658983412,0.6709430645878722,0.4987053256554169,-0.4884726233445354,-0.1522627814640021,1.9849320361611185,-1.962711823214524,5.070158271830027,backhand
1761072572015527680,4.984527826309204,2.3980283737182617,2.4134669303894043,2.8351283073425293,0.8981691598892212,0.1343590915203094,0.4186170697212219,-1.0051026344299316,-0.368062674999237,0.6771472096443176,0.2427854687434846,0.6875998243494112,0.4863280934387253,-0.4814009145025356,-0.1347666560697316,2.0069401495024652,-1.9963485535594072,4.428692270223347,backhand
1761072572025573632,4.9945738315582275,2.053614854812622,1.792538285255432,2.463230609893799,0.8925458192825317,0.1200599819421768,0.4346812069416046,-0.8052350282669067,-0.3715248107910156,0.6909291744232178,0.2367435222738521,0.7013069783112792,0.4748780128554751,-0.4760377807868174,-0.1203503014958815,2.024000272862736,-2.0264729911317483,3.6739668634231486,backhand
1761072572035618816,5.004618883132935,1.775818109512329,1.1314094066619873,2.0693516731262207,0.8887037634849548,0.108255885541439,0.4455181360244751,-0.6669325232505798,-0.4182534515857696,0.7204974889755249,0.232360752429826,0.7119288797665085,0.464667980110414,-0.4724927961698451,-0.1084684568882528,2.0354932324351007,-2.0520657682726937,2.952259058860767,backhand
1761072572045664768,5.014664888381958,1.4569693803787231,0.5565885901451111,1.669887900352478,0.8868722915649414,0.0988992825150489,0.4513053894042969,-0.6189279556274414,-0.546500563621521,0.6683082580566406,0.2293387563759458,0.7198005653903007,0.4555654070757516,-0.4709045135340731,-0.0990612169967994,2.0415171414235047,-2.073836466410687,2.284967446985731,backhand
1761072572055710720,5.0247108936309814,1.0168542861938477,0.0432735830545425,1.303389549255371,0.8869533538818359,0.0913231447339057,0.4527400135993957,-0.6393644213676453,-0.5643913745880127,0.6707035303115845,0.2280238361820491,0.7249522117115562,0.4481230809161549,-0.470781275032696,-0.0914505587491166,2.0427641830506857,-2.090307722552073,1.6536896805172658,backhand
1761072572065756672,5.034756898880005,0.6483514308929443,-0.4145874679088592,0.9632552266120912,0.8888276815414429,0.0849853754043579,0.4502919614315033,-0.6529420614242554,-0.5089508295059204,0.6724497079849243,0.2284180866196227,0.7276877006636023,0.442285650633989,-0.4718889720345095,-0.0850880128436796,2.039720609213632,-2.1016256141709952,1.232924563014104,backhand
1761072572075802880,5.044802904129028,0.3623366951942444,-0.801673412322998,0.6159707903862,0.8922659158706665,0.0801712870597839,0.4443354606628418,-0.6289908289909363,-0.4399583041667938,0.6455235481262207,0.2301681099898012,0.7282263239344964,0.4380115875395165,-0.4741886398390075,-0.0802574165837318,2.0328310193198917,-2.108290316346058,1.0739591031873077,backhand
1761072572085848832,5.054848909378052,0.2350450754165649,-1.1207971572875977,0.2595313489437103,0.8969281911849976,0.0775520205497741,0.4353225529193878,-0.587205171585083,-0.3644782602787018,0.5876572728157043,0.2325800525088035,0.7269114797084931,0.4350413519362438,-0.4777502629408337,-0.0776299685203414,2.022654009404158,-2.111619330961517,1.1742184534174553,backhand
1761072572095893504,5.06489372253418,0.1317943185567855,-1.420600652694702,-0.0771297737956047,0.9025760293006896,0.077604740858078,0.4234782755374908,-0.5541417002677917,-0.316191166639328,0.5344074368476868,0.2352453055827919,0.723899282272245,0.4332539225655903,-0.4826183169156413,-0.0776828496476926,2.009492315307399,-2.112335785079039,1.4287844340019322,backhand
1761072572105939712,5.074939727783203,0.0039099249988794,-1.6465665102005005,-0.3736624419689178,0.9088796973228456,0.0799632892012596,0.4093205332756042,-0.536687433719635,-0.2901378870010376,0.4913446307182312,0.2381545334836451,0.7193999300756918,0.4325783225338046,-0.4884895734087409,-0.0800487530625597,1.9939472692770177,-2.1105940913329286,1.688437200657912,backhand
1761072572115985664,5.084985733032227,-0.2044781595468521,-1.8002846240997314,-0.6838970184326172,0.9154353737831116,0.0844536274671554,0.3935041129589081,-0.5507198572158813,-0.2755547165870666,0.4640092551708221,0.2413343864786866,0.7135103524273407,0.4331916779614704,-0.49498041241025,-0.0845543411618854,1.976771659758621,-2.106012997163689,1.9366339812475155,backhand
1761072572126031616,5.09503173828125,-0.4980525076389313,-1.8764206171035769,-0.9820079803466796,0.9218510389328004,0.0908394902944564,0.3767476081848144,-0.5767888426780701,-0.2333413362503051,0.4711985290050506,0.2448588656095318,0.7063268765430246,0.4352885834767685,-0.5016675134297175,-0.0909648850516931,1.95876813885149,-2.098113140472054,2.1756264169478547,backhand
1761072572136077568,5.105077743530273,-0.7596409916877747,-1.968911409378052,-1.2537734508514404,0.9278821349143982,0.0989102274179458,0.3595162034034729,-0.5831554532051086,-0.2216671556234359,0.4539757072925567,0.2488124943835573,0.6979109987367683,0.4389514030277711,-0.5082660401714474,-0.0990722211402987,1.940444892499784,-2.0866146614872876,2.454712700152786,backhand
1761072572146122752,5.1151227951049805,-0.9803370833396912,-2.0627529621124268,-1.482632040977478,0.9335715770721436,0.1086354032158851,0.3415303230285644,-0.571098804473877,-0.2424244284629821,0.4350353181362152,0.2531505669908162,0.6882926475151827,0.4438675414083797,-0.5149269873281005,-0.1088502261449601,1.921505150031506,-2.0721779773557985,2.7229043957891004,backhand
1761072572156168704,5.125168800354004,-1.024294376373291,-2.144724130630493,-1.7398340702056885,0.9387363195419312,0.12040276825428,0.3229199945926666,-0.5431979894638062,-0.2477984130382537,0.4113482236862182,0.2575104596647762,0.677594172106472,0.4498067725436196,-0.521755088614528,-0.1206955954940271,1.902110916733614,-2.0556912498129902,2.9455123761116955,backhand
1761072572166214656,5.135214805603027,-0.9042789340019226,-2.260056972503662,-1.957847595214844,0.9432945251464844,0.1348506212234497,0.303333431482315,-0.5175894498825073,-0.2847529351711273,0.3607749044895172,0.2612426606856834,0.6660173066559939,0.4561662652081777,-0.5292312535477988,-0.1352627061337233,1.881921065285192,-2.039189424053158,3.1238990245413856,backhand
1761072572176260608,5.145260810852051,-0.8185222148895264,-2.3805935382843018,-2.1690361499786377,0.9471631646156312,0.1518897712230682,0.2825098633766174,-0.4995922446250915,-0.3085212111473083,0.3058233559131622,0.2642805260656136,0.65360325234156,0.4626637175628472,-0.5374951265886313,-0.1524799407762721,1.86066472790406,-2.023356947438345,3.3229387642120005,backhand
1761072572186306816,5.155306816101074,-0.7342122197151184,-2.5138802528381348,-2.410693407058716,0.9501218795776368,0.1716009676456451,0.2604252099990845,-0.4904967546463012,-0.293656051158905,0.2851527631282806,0.2666467641632353,0.6402411643247349,0.469365372197505,-0.5465224690680766,-0.1724545201906517,1.8383224850770865,-2.0080716588199663,3.5595089846810173,backhand
1761072572196351744,5.165351867675781,-0.6770511865615845,-2.6644036769866943,-2.644081115722656,0.9519480466842652,0.1940059214830398,0.2369736135005951,-0.4783458113670349,-0.290349930524826,0.2898818254470825,0.2683628065185027,0.6258316421035196,0.4762578777510481,-0.556322335684032,-0.1952440135447703,1.814772816004588,-1.9933727213143488,3.8142640456169037,backhand
1761072572206397696,5.175397872924805,-0.708595335483551,-2.828256607055664,-2.8386096954345703,0.9524509310722352,0.2187080532312393,0.2121417820453643,-0.4552890658378601,-0.2630958557128906,0.3132946491241455,0.2696631064332374,0.6102983224372339,0.4833289274420934,-0.5667547529008364,-0.2204902706649623,1.7899515014647265,-1.978998910237444,4.069256417066662,backhand
1761072572216443904,5.185443878173828,-0.7306729555130005,-3.012631416320801,-2.9760098457336426,0.9515087008476256,0.2450976371765136,0.1858986467123031,-0.433121919631958,-0.2320361286401748,0.2976828813552856,0.2708909382087474,0.5935814065680859,0.4905205779370227,-0.5776406861739085,-0.2476204012551209,1.7637384473487754,-1.9646169480218123,4.297262572897397,backhand
1761072572226489856,5.195489883422852,-0.8054546117782593,-3.208441734313965,-3.095663547515869,0.9489840865135192,0.2727714776992798,0.1581933200359344,-0.4378908276557922,-0.2198691964149475,0.2750341892242431,0.2722287928293251,0.5756591196244593,0.4977079813248205,-0.5888929511287241,-0.2762725691987927,1.735975044496945,-1.950238860358376,4.530561586993493,backhand
1761072572236535808,5.205535888671875,-0.88050377368927,-3.339989185333252,-3.2159173488616943,0.944614052772522,0.3015617430210113,0.1294789612293243,-0.476199746131897,-0.1825431883335113,0.255988597869873,0.2737491439713495,0.5565282133691091,0.5049909212701666,-0.6002681953785011,-0.3063302184573488,1.7070181913690723,-1.9355257655181115,4.719421473902681,backhand
1761072572246580736,5.215580940246582,-0.8869121670722961,-3.476759433746338,-3.3260762691497803,0.9381349086761476,0.3314959108829498,0.1000669971108436,-0.5359132289886475,-0.1205584108829498,0.2312928438186645,0.2751837251720346,0.5363549878078251,0.5122077962095616,-0.6117519494742921,-0.3378886959665375,1.67706042487333,-1.9211630710091796,4.892571174796168,backhand
1761072572256626688,5.225626707077026,-0.8508164882659912,-3.5688483715057373,-3.396570205688477,0.9294368624687196,0.3622795939445495,0.0700048431754112,-0.5907832980155945,-0.043203055858612,0.198809266090393,0.2764647533012535,0.515278612816495,0.5191246225847636,-0.6233496833026908,-0.3707124631614315,1.6459740156658125,-1.9077487441330612,4.99972564824062,backhand
1761072572266672640,5.23567271232605,-0.7884858846664429,-3.6229867935180664,-3.47096586227417,0.9183775782585144,0.3937052190303802,0.0397315211594104,-0.609204113483429,0.0262776017189025,0.1925530433654785,0.2773826902518975,0.493549162857472,0.5256186674911272,-0.6349748040119689,-0.404658899992565,1.614032092860915,-1.8958505382337347,5.07891202063958,backhand
1761072572276718592,5.245718717575073,-0.7358288168907166,-3.69853138923645,-3.504446268081665,0.9049116373062134,0.4254975020885467,0.0093217361718416,-0.5801588296890259,0.0833525955677032,0.1954512596130371,0.2779769227869664,0.4712133715015444,0.5316190615580147,-0.6465817724447716,-0.4395115675482337,1.5810972294681074,-1.8856204425569112,5.1479823359065255,backhand
1761072572286764544,5.255764722824097,-0.7023833990097046,-3.7797751426696777,-3.496840476989746,0.8891578316688538,0.457108587026596,-0.021213361993432,-0.523145318031311,0.1236103773117065,0.2062414288520813,0.2783761187054329,0.4484064991906913,0.5369589651484823,-0.6581135099474615,-0.4747415304431543,1.546943038137932,-1.8773049439448,5.196915997960895,backhand
1761072572296809728,5.265809774398804,-0.7511043548583984,-3.8871185779571538,-3.4679784774780273,0.8711923360824585,0.4882146716117859,-0.0516758747398853,-0.4703134894371032,0.172780841588974,0.2197666764259338,0.2789064647400754,0.4250161118459795,0.5417779679558611,-0.6693647532013929,-0.5100428794016496,1.5115494829155134,-1.8701586209686416,5.263147661926056,backhand
1761072572306855680,5.275855779647827,-0.7617411017417908,-3.970808982849121,-3.4050216674804688,0.8511766791343689,0.5184593200683594,-0.0818412899971008,-0.4395709037780761,0.192783236503601,0.1873100399971008,0.2797055169912123,0.4011335740930092,0.5460505556540046,-0.6802098093384932,-0.5450482400127916,1.4749402292013427,-1.8640548185452328,5.285995274342339,backhand
1761072572316901632,5.285901784896851,-0.777567982673645,-4.036677837371826,-3.38052749633789,0.8291056752204895,0.547855794429779,-0.1115245819091796,-0.4398998022079468,0.1628069877624511,0.1602001190185547,0.2807129580851685,0.3767893998967322,0.549788555213348,-0.6906247017547672,-0.5797989798875793,1.4370869869981435,-1.85910725307749,5.322344040355205,backhand
1761072572326947584,5.295947790145874,-0.7954638600349426,-4.0833048820495605,-3.375182867050171,0.8048854470252991,0.5765871405601501,-0.1403805613517761,-0.4589381814002991,0.1689420342445373,0.1404415965080261,0.2817409434739963,0.352021464144444,0.5530737821045951,-0.7005800166012116,-0.6145454031369388,1.3981225989036397,-1.855474008688775,5.357051511645233,backhand
1761072572336993792,5.3059937953948975,-0.7277852296829224,-4.146238803863525,-3.3591055870056152,0.7785011529922485,0.6045865416526794,-0.1685560047626495,-0.4650245904922485,0.1805391907691955,0.1239851117134094,0.2827247063289894,0.3268464724668271,0.5557817753649037,-0.7101723607485912,-0.6492467262393342,1.357573992248109,-1.8536957127246176,5.3855879812570695,backhand
1761072572347039744,5.316039800643921,-0.620346188545227,-4.233254432678223,-3.292318344116211,0.7501496076583862,0.6313763856887817,-0.1965683698654174,-0.4621095657348633,0.1715104579925537,0.08948215842247,0.2836718581074686,0.301444460095941,0.5575365963378216,-0.719593151040061,-0.683326856195197,1.3145194449421531,-1.8549031276219,5.398576901780368,backhand
1761072572357084672,5.326084852218628,-0.7187944650650024,-4.316938400268555,-3.2065322399139404,0.7201003432273865,0.6567355990409851,-0.2239508926868438,-0.468223512172699,0.1914394497871399,0.0741553902626037,0.28502550439449,0.2756796844581908,0.558592214593447,-0.7285163002612629,-0.7164817882776041,1.2692789793405397,-1.8577919599022592,5.425354517478911,backhand
1761072572367130880,5.336130857467651,-0.8406097888946533,-4.327823162078857,-3.212045192718506,0.6882992386817932,0.6812552213668823,-0.2492700815200805,-0.4671536087989807,0.2227364778518676,0.0841699838638305,0.2864711900137273,0.2496149017967799,0.5595152921218638,-0.7365930590587367,-0.7494759232423021,1.2233354983616622,-1.861400344073335,5.454714700099156,backhand
1761072572377176832,5.346176862716675,-0.9228673577308656,-4.428886413574219,-3.1872527599334717,0.6544719934463501,0.7052202224731445,-0.2726368010044098,-0.4223095774650574,0.2046765685081482,0.1561054289340973,0.287961834793601,0.2229931221129864,0.560317476312779,-0.743906140502859,-0.7827336888068067,1.1760831704365644,-1.8659635107983088,5.534012936379078,backhand
1761072572387222784,5.356222867965698,-1.0597161054611206,-4.567911148071289,-3.081296920776367,0.6190806031227112,0.7280960083007812,-0.2943050265312195,-0.3319712281227112,0.2213516235351562,0.1677944064140319,0.2899528306929654,0.1958087368237971,0.5608087233187596,-0.7503865134068759,-0.8155402169503233,1.1270294501975222,-1.8712089215358985,5.610989324070539,backhand
1761072572397268736,5.366268873214722,-1.0580018758773804,-4.670500755310059,-2.9967195987701416,0.5824183821678162,0.7496963739395142,-0.3142361044883728,-0.2930354475975036,0.2558426856994629,0.0986751616001129,0.292549326793929,0.1681463324843592,0.5608999587627248,-0.7559980483313057,-0.847603131087436,1.076021851382207,-1.877196751608548,5.649183447929883,backhand
1761072572407313920,5.376313924789429,-0.9037824869155884,-4.731744289398193,-2.9668314456939697,0.544363260269165,0.7697848677635193,-0.3333164155483246,-0.2995970845222473,0.1951656341552734,0.0047031939029693,0.2952445017390494,0.1403397184704423,0.5600415662198921,-0.7612416463880493,-0.8785040448720137,1.0213780377566284,-1.886803707768899,5.657589206637957,backhand
1761072572417359872,5.386359930038452,-0.6686202883720398,-4.715660095214844,-2.92199182510376,0.5050376057624817,0.788030207157135,-0.3520592153072357,-0.3127005100250244,0.1036783456802368,-0.0798713266849517,0.2978097776115498,0.1126931816591379,0.5579163423839212,-0.766380532790336,-0.9076027730355046,0.9620226698698596,-1.9018007316777257,5.587713257639263,backhand
1761072572427405824,5.396405935287476,-0.4379931688308716,-4.690417289733887,-2.819009304046631,0.4649484753608703,0.8040518164634705,-0.3705717623233795,-0.3288706243038177,0.1032661795616149,-0.1406892240047454,0.300074553061056,0.0856875661166506,0.5544111815694502,-0.7715186733172698,-0.9340790204707952,0.8978770472310367,-1.9231139227027565,5.489869381331268,backhand
1761072572437451776,5.406451940536499,-0.1972087621688842,-4.59712553024292,-2.6804909706115723,0.4248325526714325,0.8175535202026367,-0.3887461125850677,-0.3321353793144226,0.1972322463989257,-0.1914845705032348,0.3024342602205552,0.0594880332314747,0.5496254380863349,-0.776470576472393,-0.9571496722267652,0.8297243018843347,-1.949478830229742,5.325174765227673,backhand
1761072572447497728,5.416497707366943,-0.0163507387042045,-4.5002121925354,-2.5760037899017334,0.3849599659442901,0.8286357522010803,-0.4064095914363861,-0.3177449703216553,0.3244252800941467,-0.1397024989128112,0.3046855689012041,0.0343296547864883,0.5437064256447794,-0.7812628260824038,-0.976666163407169,0.7583003620824144,-1.9807249886320033,5.185361380857514,backhand
1761072572457542656,5.42654275894165,0.1100511401891708,-4.447892665863037,-2.4828171730041504,0.3451510369777679,0.8376972079277039,-0.4232422113418579,-0.2708865106105804,0.4535319209098816,-0.0533354878425598,0.306968604966286,0.0098739954854218,0.5369184292747892,-0.7857424785029054,-0.9930529845806132,0.6841167285646717,-2.0155722271978,5.0951193837887105,backhand
1761072572467588608,5.436588764190674,-0.0054286485537886,-4.346398830413818,-2.333475112915039,0.305699735879898,0.8452575206756592,-0.4382779002189636,-0.2109579145908355,0.5255921483039856,-0.0144808888435363,0.3092065404600998,-0.0138822855706537,0.5297813947472563,-0.7896393814131812,-1.0070468554100815,0.6090475255301132,-2.0522528565326383,4.933185417743953,backhand
1761072572477634560,5.446634769439697,-0.2771533727645874,-4.212240219116211,-2.261211395263672,0.2671024203300476,0.8524848222732544,-0.4493616819381714,-0.1580478549003601,0.5234917402267456,0.0138300657272338,0.3114354793400418,-0.0371731183703473,0.5233902128372444,-0.7922680999180264,-1.0207203256259334,0.5362946780194511,-2.087264428518396,4.788826435531492,backhand
1761072572487680512,5.456680536270142,-0.4596595466136932,-4.122333526611328,-2.205667018890381,0.2288689017295837,0.8597748875617981,-0.4565150737762451,-0.13516466319561,0.3985410928726196,-0.0212070643901824,0.3132709570549728,-0.0601891070702576,0.5178027894236613,-0.7938001804282261,-1.03482870573443,0.4647183863366727,-2.1220847393305875,4.697859895914061,backhand
1761072572497726464,5.466726541519165,-0.5217820405960083,-3.983116865158081,-2.0100622177124023,0.1918648332357406,0.8665664792060852,-0.4607063233852386,-0.1329201310873031,0.3338271379470825,-0.1084464490413665,0.3151518248172049,-0.082622565037459,0.5126600679603073,-0.7943754888461207,-1.0482807369014353,0.3946132945320841,-2.1561241635857966,4.491973572770679,backhand
1761072572507771392,5.476771593093872,-0.3593055605888366,-3.814754486083984,-1.834977388381958,0.1569837480783462,0.8720309138298035,-0.4635927379131317,-0.1747602373361587,0.389733612537384,-0.1562040448188781,0.3171929260628472,-0.1037740261919211,0.5073801175730741,-0.7944715599282245,-1.0593364944447905,0.3265047990028486,-2.18959196563646,4.248363719226616,backhand
1761072572517817600,5.4868175983428955,-0.0079089170321822,-3.5475778579711914,-1.6806684732437134,0.1243104115128517,0.8754318952560425,-0.4670823514461517,-0.2541779577732086,0.401103138923645,-0.2747542262077331,0.3193439221052332,-0.1232196613314575,0.5012741198129432,-0.7947079029584124,-1.0663286844368525,0.2601128546413075,-2.2233346549684647,3.9255595430831822,backhand
1761072572527863552,5.496863603591919,0.1184972152113914,-3.264643669128418,-1.5523425340652466,0.0940458104014396,0.876824140548706,-0.4715240597724914,-0.3140622973442077,0.3991920948028564,-0.307696521282196,0.3213410491591402,-0.1406466466856808,0.4944254158295905,-0.7952999946870926,-1.0692166777059802,0.1968673423742291,-2.2567921234471533,3.616864279933825,backhand
1761072572537909504,5.506909608840942,0.1003206148743629,-3.001620054244995,-1.4628374576568604,0.0659010112285614,0.8775131106376648,-0.4750031232833862,-0.3189680278301239,0.4902696013450622,-0.2445403933525085,0.3230960705747281,-0.156667264075325,0.4878050889241319,-0.7956825208343328,-1.0706515030442785,0.1378580364538074,-2.288304477817237,3.3406108129110885,backhand
1761072572547955456,5.516955614089966,0.1189789995551109,-2.7917535305023193,-1.414059042930603,0.0394013337790966,0.8777816891670227,-0.4774376153945923,-0.2638581097126007,0.5158644914627075,-0.2302497327327728,0.3244902493205067,-0.1715625188542471,0.481505447917567,-0.7958798703755544,-1.0712118863671949,0.0823400762413813,-2.318433131775057,3.1317098770960747,backhand
1761072572558001408,5.527001619338989,0.1570054590702057,-2.639414548873902,-1.3543192148208618,0.014100351370871,0.8774722218513489,-0.4794202148914337,-0.1702893376350402,0.4426876902580261,-0.2339739799499511,0.3255917276851927,-0.1855274466147717,0.4752572554393948,-0.7960528645243697,-1.0705661852356148,0.0294027808729487,-2.3476601578568363,2.970747449821015,backhand
1761072572568046592,5.537046670913696,0.1504027843475341,-2.517357349395752,-1.2140742540359497,-0.0096576018258929,0.8767561316490173,-0.4808380901813507,-0.0633251741528511,0.3313888907432556,-0.2487303614616394,0.326704106097003,-0.1986224843559323,0.4691802070558795,-0.796042308887686,-1.0690752887582184,-0.0200822351488791,-2.3745848401824117,2.798872150779532,backhand
1761072572578092544,5.54709267616272,0.0935965031385421,-2.4073548316955566,-1.0562103986740112,-0.0315863862633705,0.8759094476699829,-0.4814406037330627,-0.0088952034711837,0.1986602544784546,-0.2608231902122497,0.3280630537302786,-0.2109338027157047,0.463450786113091,-0.7956727226736273,-1.0673176161447315,-0.0655141720832262,-2.3981656608045676,2.6305318848770525,backhand
1761072572588138496,5.557138681411743,0.0964988470077514,-2.2507452964782715,-0.9252764582633972,-0.0515328533947467,0.8750942349433899,-0.481201171875,-0.0412253439426422,0.1403476595878601,-0.3064727783203125,0.3294136556021628,-0.2222780902638912,0.4582486895388286,-0.7950392380309765,-1.0656305419691785,-0.1066855125305468,-2.4189369871850044,2.435426644616779,backhand
1761072572598184704,5.567184686660767,0.2353555411100387,-2.090514898300171,-0.8532505035400391,-0.0698096305131912,0.8737903237342834,-0.481266051530838,-0.1152641996741294,0.1470836400985717,-0.3366049826145172,0.330874668743631,-0.2326223355463999,0.4530494721254096,-0.7944525631807209,-1.0629426961240136,-0.1440494474416621,-2.437108052409327,2.2701720623198374,backhand
1761072572608230656,5.57723069190979,0.4176433980464935,-1.9511102437973025,-0.7952752113342285,-0.086839959025383,0.8715556859970093,-0.4825448989868164,-0.1534402072429657,0.1704670190811157,-0.3417043685913086,0.3325247393396877,-0.2420022099306678,0.4473952205235045,-0.7941661335829969,-1.0583664228937513,-0.1780565648487511,-2.452844510228682,2.147957134848201,backhand
1761072572618275584,5.587275743484497,0.5105836987495422,-1.8507673740386963,-0.6903247833251953,-0.1025870740413665,0.8685534596443176,-0.4848616421222687,-0.1391426622867584,0.2148968577384948,-0.2964189052581787,0.3343717739318912,-0.250451746169803,0.4414103553393307,-0.7941198457136415,-1.0522759722343176,-0.2085050774814219,-2.465914716753732,2.040241135921887,backhand
1761072572628321536,5.5973217487335205,0.4827742278575897,-1.77302348613739,-0.6074140071868896,-0.1170803979039192,0.8653776049613953,-0.4872512519359588,-0.1195834204554557,0.2512605786323547,-0.2247238159179687,0.3364248673681151,-0.2582596317485225,0.4355184656750662,-0.7940050051969001,-1.0459034095247826,-0.2358168240936454,-2.4764113799177054,1.9353643103057134,backhand
1761072572638367744,5.607367753982544,0.38315150141716,-1.667810559272766,-0.5793551802635193,-0.130656361579895,0.8624886274337769,-0.4889196753501892,-0.1329850107431411,0.2378379106521606,-0.1728082299232483,0.3383928836769283,-0.2656698894874456,0.430069386898221,-0.7936940172500708,-1.0401666933002678,-0.2611327600682504,-2.485679170032309,1.8066680822879821,backhand
1761072572648413696,5.617413759231567,0.3298633694648742,-1.548770785331726,-0.5407027006149292,-0.1434537321329116,0.8599933981895447,-0.4897268414497375,-0.1512087434530258,0.1925426125526428,-0.1632730364799499,0.3400757204880884,-0.2727040223775486,0.4251694846058854,-0.7932288121861012,-1.0352567472957266,-0.284954336926544,-2.494555278904901,1.6732782788478577,backhand
1761072572658459648,5.627459764480591,0.2865169644355774,-1.409673810005188,-0.459167331457138,-0.1550862938165664,0.8577109575271606,-0.4901837110519409,-0.1539957076311111,0.1274574398994445,-0.1776019036769867,0.3416495373627892,-0.2791420537843679,0.4206992573504741,-0.7926962260108045,-1.0308007086838151,-0.3064194176513105,-2.502218904005825,1.5100022714557055,backhand
1761072572668504576,5.637504577636719,0.2651755213737488,-1.2055209875106812,-0.3724939525127411,-0.1651518195867538,0.8557094931602478,-0.4903939664363861,-0.1786592155694961,0.0690036416053772,-0.206856369972229,0.342949972380851,-0.2846891071092567,0.4168394449745394,-0.7922009676866886,-1.0269203534254412,-0.3248437284069836,-2.5087810900816763,1.2893217802872685,backhand
1761072572678550528,5.647550582885742,0.2850445806980133,-0.9315549731254578,-0.3442535102367401,-0.1734618842601776,0.8537535667419434,-0.4909335970878601,-0.2423706203699112,0.0306000113487243,-0.27806356549263,0.3439617378335669,-0.2890998466235052,0.413466413469938,-0.7919325120009539,-1.0231522427412625,-0.3396388908041816,-2.514042101467519,1.0332258031284332,backhand
1761072572688596480,5.657596588134766,0.2997326850891113,-0.6911818385124207,-0.4073788821697235,-0.1806290000677108,0.8516783118247986,-0.4919523894786834,-0.2932937145233154,0.0699067115783691,-0.2763428390026092,0.3443850136800025,-0.2924866217930694,0.4104575188894609,-0.7920701340847585,-1.0191794792663509,-0.3518863182812681,-2.5193695741975377,0.856463408464128,backhand
1761072572698642432,5.667642593383789,0.2847691774368286,-0.5256471633911133,-0.4695823192596435,-0.1874239891767501,0.8493871688842773,-0.4933697581291199,-0.2645871043205261,0.1142206192016601,-0.2184374928474426,0.3441570364682697,-0.2952235335620457,0.4076250488430171,-0.7926164417402487,-1.014822989834069,-0.3630469079798418,-2.5256958470653217,0.760201275558281,backhand
1761072572708688384,5.6776885986328125,0.2527883052825928,-0.4223060607910156,-0.4712600409984588,-0.1938188225030899,0.847154974937439,-0.4947348535060882,-0.1694318801164627,0.1105018258094787,-0.1709907948970794,0.3435245407834553,-0.2975639016248481,0.4050781374273298,-0.7933210011900529,-1.0106078739273971,-0.3733854297372593,-2.53254152001988,0.6814179059214245,backhand
1761072572718734592,5.687734603881836,0.1871195286512375,-0.3685656189918518,-0.4040234982967376,-0.1995570212602615,0.8451645970344543,-0.4958567321300506,-0.0879033207893371,0.0726820826530456,-0.1546101570129394,0.3428646480289068,-0.2996391736233569,0.4028498475484133,-0.7939598791769261,-1.0068730253159497,-0.3826157576648776,-2.53883052533482,0.5780046026472818,backhand
1761072572728779520,5.697779655456543,0.0720939040184021,-0.3145865499973297,-0.3696770370006561,-0.2044926136732101,0.8437625169754028,-0.4962334632873535,-0.0601253360509872,0.0479305982589721,-0.1450476646423339,0.3421433549877826,-0.3015134269942127,0.4012143023217181,-0.7943895346026487,-1.0042553167383876,-0.3908847253676919,-2.5447631262909587,0.49073754708746453,backhand
1761072572738825472,5.707825660705566,0.02204698510468,-0.2364848256111145,-0.4210856258869171,-0.2092203944921493,0.8427004814147949,-0.4960671365261078,-0.0775227397680282,-0.0209079384803771,-0.1390189230442047,0.3411250565970053,-0.3032948369517732,0.3999733464442294,-0.7947749147540583,-1.002279657570944,-0.3991216407307421,-2.5514124757350864,0.4834503559054455,backhand
1761072572748871680,5.71787166595459,-0.145019993185997,-0.1919365674257278,-0.4252615571022033,-0.2140114307403564,0.8421130180358887,-0.4950199723243713,-0.0866629928350448,-0.0978045463562011,-0.1261195242404937,0.3395662381946953,-0.3050905297889616,0.3992615412895821,-0.7951130251586324,-1.0011893366789166,-0.4080618532494714,-2.5597840795662976,0.4885875932602342,backhand
1761072572758917632,5.727917671203613,-0.210261583328247,-0.1987148374319076,-0.3904127776622772,-0.2183739095926284,0.8421579599380493,-0.493034303188324,-0.0828345865011215,-0.0877481698989868,-0.1329880356788635,0.3380578687601034,-0.3069816059278502,0.3990553124584258,-0.7951314918096893,-1.0012727757413245,-0.4169491861807735,-2.5680437569223904,0.48592145147262794,backhand
1761072572768963584,5.737963676452637,-0.1685956269502639,-0.1892539709806442,-0.4370556473731994,-0.2228448092937469,0.8422253131866455,-0.4909141957759857,-0.0893957912921905,-0.009965181350708,-0.1433173418045044,0.3364064227379066,-0.3088899770223203,0.398910875790533,-0.7951652900348671,-1.001397636398178,-0.4261242927105564,-2.5768082744017593,0.5052318179405385,backhand
1761072572779008512,5.748008728027344,-0.086972676217556,-0.1613919734954834,-0.4957149624824524,-0.2276923805475235,0.8417720794677734,-0.4894649386405945,-0.123152956366539,0.0443363189697265,-0.159537136554718,0.3346825892215443,-0.3107434092610338,0.3983792956423812,-0.7954369932830718,-1.0005575060267435,-0.4354108293861198,-2.5857446936581723,0.5285309258181491,backhand
