time,seconds_elapsed,rotationRateX,rotationRateY,rotationRateZ,gravityX,gravityY,gravityZ,accelerationX,accelerationY,accelerationZ,quaternionW,quaternionX,quaternionY,quaternionZ,pitch,roll,yaw,omega_mag,label
1761072577088666368,10.057666540145874,0.1346032321453094,-0.2952446639537811,0.1842441260814666,-0.318932294845581,0.8439724445343018,-0.4312688112258911,0.088585615158081,0.0802829265594482,0.0642949342727661,0.3299021101074429,-0.3681124916071518,0.3858222277357757,-0.7789730730409125,-1.0046465400055815,-0.6367606961358689,-2.698603720908625,0.3731398393265835,backhand
1761072577098711552,10.06771159172058,0.1688416302204132,-0.334322839975357,0.2049203664064407,-0.3185468912124634,0.8440730571746826,-0.4313565790653229,0.0887190699577331,0.0961887240409851,0.0691587030887603,0.3315719455728461,-0.3687365272765818,0.385168909659056,-0.778291899541058,-1.0048341785614423,-0.6360854929994485,-2.694020366532972,0.42693279798210026,backhand
1761072577108757504,10.077757596969604,0.2060099244117736,-0.3872328102588653,0.2203975170850753,-0.3181222081184387,0.8441612720489502,-0.4314974248409271,0.0802529454231262,0.1208045482635498,0.076837420463562,0.3334769338169998,-0.3694422248182528,0.3844004725873015,-0.7775229071201366,-1.004998694028132,-0.6352921229886895,-2.6887651031962023,0.49088125227430424,backhand
1761072577118803456,10.087803602218628,0.2481387257575988,-0.4359588325023651,0.2618347108364105,-0.3175641000270843,0.8441706895828247,-0.431889921426773,0.0791455507278442,0.1352909207344055,0.068578153848648,0.3356990895456679,-0.3701659946916275,0.3834477513217673,-0.7766923995501673,-1.005016259163542,-0.6340197019257554,-2.682421113794957,0.5658536442015875,backhand
1761072577128849408,10.097849607467651,0.2518479228019714,-0.4912587702274322,0.2949888408184051,-0.317409336566925,0.8438243269920349,-0.4326798021793365,0.0863149762153625,0.1576252579689026,0.0793015360832214,0.3381095158481423,-0.3710411474788397,0.3820844923628518,-0.7759006651495821,-1.0043704572405057,-0.63291535427224,-2.6755327363462515,0.6259240942418043,backhand
1761072577138895616,10.107895612716677,0.2770281136035919,-0.529498815536499,0.3514968454837799,-0.3170875906944275,0.8435678482055664,-0.4334153532981872,0.0924934446811676,0.1760245561599731,0.0755966901779174,0.3407935365278425,-0.3719881589093852,0.3806798339507071,-0.7749629163244016,-1.003892681776216,-0.6316221406240993,-2.667876397099266,0.6932990723824519,backhand
1761072577148941568,10.117941617965698,0.3272415399551391,-0.5648650527000427,0.4258624315261841,-0.3163506686687469,0.8433626890182495,-0.4343518912792206,0.1023156940937042,0.1727047562599182,0.0566664040088653,0.3438802240816361,-0.3728790749398736,0.3791902542718831,-0.7739006811803633,-1.0035107692224388,-0.6294861986640435,-2.658780135353125,0.779434643712625,backhand
1761072577158986496,10.127986669540403,0.3793087303638458,-0.5919901728630066,0.4905780553817749,-0.3151617050170898,0.843152642250061,-0.4356221258640289,0.1154852509498596,0.1748221516609192,0.0595540702342987,0.3473872955411616,-0.3736636865036687,0.3775769963486655,-0.772743836051339,-1.0031199971289655,-0.6263078814688187,-2.6480779512686508,0.8573180892287114,backhand
1761072577169032448,10.138032674789429,0.3849160075187683,-0.6286683082580566,0.5463307499885559,-0.3135323524475097,0.8430442810058594,-0.4370056390762329,0.1337532997131347,0.1876869201660156,0.0874420404434204,0.3512538534707349,-0.3743859303756013,0.3759419605807402,-0.7714425627377336,-1.002918480113662,-0.6223456492398257,-2.6360902400277553,0.9175300883542149,backhand
1761072577179078656,10.148078680038452,0.3874968588352203,-0.6698343753814697,0.5990554690361023,-0.3116204738616943,0.8430823683738708,-0.4382976591587066,0.1597344875335693,0.1960411667823791,0.111484944820404,0.3553937323714331,-0.375139756366345,0.3743278356910977,-0.7699637195602897,-1.0029892875924715,-0.6180565277419932,-2.623272543233622,0.9786211529656974,backhand
1761072577189124608,10.158124685287476,0.3807973861694336,-0.7313499450683594,0.6812271475791931,-0.3093730509281158,0.8433342576026917,-0.4394037425518036,0.1951457560062408,0.2033576369285583,0.1295893192291259,0.3598803138160639,-0.3759690235213765,0.3727538357804202,-0.7682369592104521,-1.003457872719184,-0.6134554393973907,-2.6094546712235855,1.0695558975873345,backhand
1761072577199170560,10.1681706905365,0.4021042585372925,-0.8103179931640625,0.7773520946502686,-0.3066539466381073,0.8438364863395691,-0.440344750881195,0.2203502058982849,0.2287649512290954,0.1452091932296753,0.3648609324984499,-0.3768809166487155,0.3711986075895362,-0.7661912175182279,-1.0043931227821112,-0.6083025292663834,-2.594133396759122,1.1927193147746118,backhand
1761072577209215488,10.178215503692629,0.4520590603351593,-0.8809207677841187,0.866479218006134,-0.3034911751747131,0.8444322943687439,-0.4413925111293793,0.2161345481872558,0.2595259547233581,0.1509109139442443,0.3703960318886881,-0.377831314292775,0.369522987930789,-0.7638737780277085,-1.0055044346826751,-0.6023393636258072,-2.576958025299964,1.3157374465982907,backhand
1761072577219261440,10.18826150894165,0.4820883274078369,-0.93761944770813,0.91899836063385,-0.2999918460845947,0.8450334668159485,-0.4426323473453522,0.1899454593658447,0.286054790019989,0.1726433038711547,0.3763839135827738,-0.3787903888706582,0.3676977934996279,-0.7613484136554732,-1.0066277798546108,-0.5956330451631161,-2.5581860820155105,1.398605509423972,backhand
1761072577229307392,10.198307514190674,0.4766366183757782,-0.994310736656189,0.980238914489746,-0.2962675094604492,0.8457091450691223,-0.4438488483428955,0.1666745841503143,0.3025299906730652,0.206498384475708,0.3826924330082634,-0.3798142282281244,0.3658096862508068,-0.7585980942109927,-1.0078926039992342,-0.5885768011356781,-2.5383611690632946,1.4753659330777928,backhand
1761072577239353344,10.208353519439695,0.4450949430465698,-1.0527328252792358,1.0571755170822144,-0.2922134101390838,0.8466382622718811,-0.4447638094425201,0.1616287529468536,0.3133043050765991,0.2344214618206024,0.3893129083366813,-0.3809492388890407,0.3639996815247212,-0.7555244987137301,-1.009636140658594,-0.5812860393426056,-2.5175893246279264,1.556912323692018,backhand
1761072577249399296,10.21839952468872,0.4422483444213867,-1.1218042373657229,1.134330987930298,-0.2877620458602905,0.8478427529335022,-0.4453713595867157,0.1613124907016754,0.3171657919883728,0.249143362045288,0.3962834004631094,-0.3821925090566929,0.3622750464273006,-0.7520938024057737,-1.0119035412776007,-0.5736407650944849,-2.495688652122088,1.6555165765687985,backhand
1761072577259444480,10.228444576263428,0.4059944450855255,-1.196033239364624,1.2248926162719729,-0.2829354405403137,0.8493056297302246,-0.4456765353679657,0.1518929898738861,0.3154587745666504,0.2593667209148407,0.4036399120131187,-0.3835758986972004,0.3605984775518848,-0.7482734328756292,-1.0146685119098642,-0.5656474231352704,-2.472528127007618,1.7594569959231565,backhand
1761072577269490432,10.238490581512451,0.4038462340831756,-1.2537130117416382,1.305486083030701,-0.2776105999946594,0.8510656356811523,-0.4456677138805389,0.1384046375751495,0.3178949356079101,0.2742810249328613,0.4113693172365749,-0.3850526337070055,0.3590273047486924,-0.7440492229861977,-1.0180115524641236,-0.5570945088832921,-2.4480083908226846,1.8545031705500787,backhand
1761072577279536384,10.248536586761476,0.3959044218063354,-1.3394359350204468,1.389359951019287,-0.2719178199768066,0.852989912033081,-0.4454987049102783,0.1308960318565368,0.308585524559021,0.2988616824150085,0.4194763318805409,-0.3866341174230865,0.3574418967946424,-0.7394518805450656,-1.021687308279728,-0.5480076303156383,-2.422062793943644,1.970063452969529,backhand
1761072577289582592,10.258582592010498,0.4380407929420471,-1.428333401679993,1.4964566230773926,-0.2657294869422912,0.8550349473953247,-0.4453125298023224,0.1333594918251037,0.3243778944015503,0.3170623779296875,0.428094584186745,-0.3882870701243763,0.3557764641162892,-0.7344327051168401,-1.0256181855636233,-0.538008560938898,-2.3940970959151233,2.1145681515118473,backhand
1761072577299628544,10.26862859725952,0.5174921751022339,-1.5220167636871338,1.5919733047485352,-0.2590548992156982,0.8569746017456055,-0.4455166757106781,0.1298587322235107,0.3457078337669372,0.3272000253200531,0.4373256051482832,-0.3899223503699806,0.3538392669067173,-0.7290436642913795,-1.0293702404106595,-0.526683595884702,-2.363561133131052,2.2624571119180734,backhand
1761072577309674496,10.278674602508543,0.5826922059059143,-1.6150752305984497,1.6933499574661257,-0.2519499957561493,0.8587074279785156,-0.4462541937828064,0.1090819537639617,0.3586387634277344,0.3375353515148163,0.4471783380862979,-0.3915148760656801,0.3515522794348841,-0.7232970573115288,-1.0327420073704143,-0.5139745637270661,-2.3303552021291507,2.4115207413096544,backhand
1761072577319719680,10.288719654083252,0.5831624865531921,-1.6964961290359497,1.786388874053955,-0.2443597912788391,0.860413670539856,-0.4471875131130218,0.0751092880964279,0.3545063734054565,0.3523999452590942,0.4574573260496279,-0.3930720471292927,0.3491426737105694,-0.7171656509084657,-1.0360808203565188,-0.5001035653642395,-2.2950966230375,2.53167193982566,backhand
1761072577329765632,10.298765659332275,0.5690826177597046,-1.7644544839859009,1.8544689416885376,-0.2363844066858291,0.8622173070907593,-0.4479997158050537,0.0430860817432403,0.3391834497451782,0.3656327724456787,0.4679838529427267,-0.3946720090324245,0.3467479608146208,-0.7106271688924611,-1.039630852010047,-0.4855175430282674,-2.2584520661247103,2.622252792463304,backhand
1761072577339811584,10.3088116645813,0.5410547256469727,-1.836325764656067,1.9246317148208616,-0.2281191647052765,0.8641318678855896,-0.4485953748226166,0.0198824852705001,0.3076363205909729,0.3830436170101166,0.4788485412162951,-0.3964423957722184,0.3442902031462464,-0.7035636102435026,-1.04342275944566,-0.4704393768316443,-2.2202154447865285,2.7145975332964,backhand
1761072577349857536,10.318857669830322,0.4971581697463989,-1.9235806465148928,1.9984575510025024,-0.2195614427328109,0.8661981821060181,-0.4488803744316101,0.010958507657051,0.2890447378158569,0.3956882357597351,0.4898640419543316,-0.3983372916706429,0.3418877156040801,-0.6960413304928553,-1.0475432319490658,-0.454914895214247,-2.180869256801268,2.8180066239367076,backhand
1761072577359903488,10.328903675079346,0.466408759355545,-1.9966508150100708,2.078599691390991,-0.2106434553861618,0.8684519529342651,-0.4487991631031036,0.0052601248025894,0.2883321046829223,0.4023361206054687,0.5012270367615635,-0.400461127970012,0.3394573764020316,-0.6878743645636981,-1.052071219672643,-0.4388275883791293,-2.13970701129625,2.9197137333880323,backhand
1761072577369948416,10.338948488235474,0.5115004181861877,-2.068742275238037,2.1323459148406982,-0.2014096528291702,0.8706271052360535,-0.4488236904144287,-0.0139529258012771,0.275384247303009,0.3975389003753662,0.5127539352785854,-0.402562375824725,0.3369446306705166,-0.6793344978898148,-1.0564756418113317,-0.4218139637278611,-2.09705360969366,3.0146685356270115,backhand
1761072577379994368,10.348994493484495,0.5143438577651978,-2.155507326126098,2.205317735671997,-0.1919620037078857,0.8725773096084595,-0.4491763114929199,-0.0355770289897918,0.2631800770759582,0.4115634262561798,0.5245889764573357,-0.4046642549591925,0.3341536813941385,-0.6703689169005055,-1.0604539124327947,-0.4038716746134925,-2.0524756883793227,3.1263697401736623,backhand
1761072577390040320,10.35904049873352,0.5544298887252808,-2.2317020893096924,2.2768352031707764,-0.1821946650743484,0.8744028806686401,-0.4496939182281494,-0.0610456615686416,0.2942524552345276,0.4222586452960968,0.5365941615355565,-0.4067266856159183,0.3312498308155305,-0.6609943933506256,-1.0642038061059436,-0.3849403896036922,-2.006277913182844,3.2360261524497735,backhand
1761072577400086528,10.369086503982544,0.6369242072105408,-2.2960729598999023,2.3206627368927,-0.1722348034381866,0.8758082389831543,-0.4508825540542602,-0.1017520129680633,0.3017430305480957,0.4179846048355102,0.549022660181745,-0.4087110990979047,0.3278932142174656,-0.65116462025215,-1.0671078171507882,-0.3648889789911639,-1.9577043763405728,3.326123723092181,backhand
1761072577410132480,10.379132509231567,0.7078039646148682,-2.36936616897583,2.386782169342041,-0.1621034890413284,0.8767083287239075,-0.4528851211071014,-0.1455442160367965,0.3122870326042175,0.4250531196594238,0.5618594958467952,-0.4105482879634565,0.3240486683745553,-0.6409028436620453,-1.0689758691114872,-0.3437263947420214,-1.9068253840801683,3.4368025283540553,backhand
1761072577420177408,10.389177560806274,0.7632749080657959,-2.447979688644409,2.4390368461608887,-0.1518164724111557,0.8771416544914246,-0.4556031227111816,-0.1816948503255844,0.3184149265289306,0.442785769701004,0.5745827112151093,-0.4120119775079948,0.3200696331845956,-0.6305999032069138,-1.0698774898291046,-0.3216493395618837,-1.8553613347318672,3.5389396545051293,backhand
1761072577430223360,10.399223566055298,0.7575605511665344,-2.526785135269165,2.479071140289306,-0.1415805220603943,0.8772467970848083,-0.4586861729621887,-0.2202206254005432,0.3015709519386291,0.4521554112434387,0.587625982342444,-0.4135445164625553,0.3156546284836991,-0.6197086698335629,-1.0700964857674355,-0.2993875613217149,-1.802246184553998,3.619990998209288,backhand
1761072577440269568,10.40926957130432,0.7154956459999084,-2.5936532020568848,2.517864227294922,-0.1314007043838501,0.877251923084259,-0.4616957902908325,-0.2625507116317749,0.2875124812126159,0.4509230852127075,0.6008726944065693,-0.4152868212610273,0.3109484932170778,-0.608111790921581,-1.0701070835967157,-0.2772733509792472,-1.7478042778189569,3.684916718065174,backhand
1761072577450316288,10.419316291809082,0.6815249919891357,-2.640428304672241,2.5398480892181396,-0.121308647096157,0.8772184252738953,-0.4645127654075622,-0.3080279231071472,0.2716768383979797,0.4447373747825622,0.6139337207414395,-0.4171125660119974,0.3062037192722751,-0.5961055418278419,-1.070037289406831,-0.2554472258154218,-1.6932652170995834,3.726548840834526,backhand
1761072577460362240,10.429362297058104,0.6579169034957886,-2.698965311050415,2.57519793510437,-0.1112960204482078,0.8770771026611328,-0.4672781527042389,-0.342698723077774,0.2545298933982849,0.4336478412151336,0.6269261116391068,-0.4190182086017461,0.301304935185457,-0.5836117275466354,-1.069743034460534,-0.2338228018825538,-1.6382104506424155,3.7879958826699855,backhand
1761072577470408192,10.439408302307127,0.5993483066558838,-2.77345871925354,2.6086668968200684,-0.1013606935739517,0.8768808245658875,-0.4699000418186188,-0.371524453163147,0.2585561871528625,0.4317835569381714,0.6397028914929687,-0.4209759442092267,0.2963599757642433,-0.5707278156817024,-1.0693345694683596,-0.2124517590950287,-1.583074300966447,3.8544045764112007,backhand
1761072577480453376,10.449453353881836,0.6014748811721802,-2.8409016132354736,2.6234147548675537,-0.091590903699398,0.8766018748283386,-0.4724197685718536,-0.3991928398609161,0.2603153586387634,0.4387588500976562,0.6524307633936743,-0.423087418796673,0.2911823272230573,-0.5572648795785792,-1.0687545726735028,-0.1915003180221025,-1.5273390587648634,3.913412703104771,backhand
1761072577490499328,10.45949935913086,0.6139950752258301,-2.901826858520508,2.6301872730255127,-0.0821794420480728,0.8759964108467102,-0.4752650558948517,-0.4272810220718384,0.2250472903251648,0.4333186745643616,0.6649486836079501,-0.425119179522126,0.285729163056319,-0.5435768656381735,-1.0674978222779314,-0.1712198311612396,-1.4719541378570835,3.9642747332163992,backhand
1761072577500545280,10.469545364379885,0.5916343927383423,-2.951871633529663,2.6772806644439697,-0.0728613585233688,0.8751569986343384,-0.4783215522766113,-0.4500573575496673,0.2292741537094116,0.4333386421203613,0.6774518656090215,-0.4271374124203852,0.2799872512928865,-0.5293579036487821,-1.065760214826935,-0.1511651123044659,-1.415853755055974,4.028822303318116,backhand
1761072577510591232,10.479591369628906,0.5465222597122192,-3.019994020462036,2.69930100440979,-0.0636174008250236,0.8742595314979553,-0.4812724590301513,-0.4793208539485931,0.2562183737754822,0.4435222148895263,0.6896914774290324,-0.4291688320828464,0.2741858457223731,-0.5147446103680665,-1.06390844556499,-0.1314239105917037,-1.359731612095642,4.087208873595171,backhand
1761072577520637184,10.48963737487793,0.5520157814025879,-3.0813560485839844,2.695157527923584,-0.0547376163303852,0.8732228875160217,-0.4842369854450226,-0.5129961371421814,0.262870192527771,0.4352562725543976,0.7017447451506673,-0.4312859498550731,0.2680931544135984,-0.4996725972440007,-1.0617771502665798,-0.1125610978251791,-1.3036575205908871,4.130780873077847,backhand
1761072577530682112,10.499682188034058,0.538412868976593,-3.1505041122436523,2.703963279724121,-0.0463252663612365,0.8719174861907959,-0.4874564409255981,-0.5398258566856384,0.2618257403373718,0.4301902055740356,0.7134989225831001,-0.433325229783109,0.2617270009939424,-0.4844042135718945,-1.0591047974682286,-0.0947501170371415,-1.2483528874033,4.18652385599798,backhand
1761072577540728064,10.50972819328308,0.4928597211837768,-3.214939594268799,2.719261646270752,-0.0382160767912864,0.8705571889877319,-0.4905808568000793,-0.5481791496276855,0.2850061058998108,0.4550889432430267,0.7250790046039037,-0.4354875739891567,0.255068887171284,-0.4685624691139047,-1.0563335715754478,-0.0777426430763607,-1.1928048214697782,4.239472986167231,backhand
1761072577550774016,10.519774198532104,0.4793960154056549,-3.2877888679504395,2.7115986347198486,-0.0305714663118124,0.8690947890281677,-0.4936999380588531,-0.5490031242370605,0.2597504258155823,0.4709033370018005,0.7363000317828101,-0.4376693042366206,0.2481846197579403,-0.4524513698389854,-1.053369345728553,-0.0618442034071184,-1.1379846155891826,4.288606222961045,backhand
1761072577560820224,10.529820203781128,0.4216829240322113,-3.351646661758423,2.72842788696289,-0.0233951285481452,0.8675841689109802,-0.4967398941516876,-0.5550503134727478,0.2301331162452697,0.4655966758728027,0.7472788772142143,-0.4399718589137651,0.2409456858187805,-0.4358260227359178,-1.0503235179474726,-0.0470625644017013,-1.0832491119640737,4.342311661782641,backhand
1761072577570866176,10.539866209030151,0.3821942806243896,-3.391367197036743,2.728170394897461,-0.0164930410683155,0.8661511540412903,-0.4995099306106567,-0.5746782422065735,0.2345568537712097,0.4577618837356567,0.7578133439651722,-0.4423376778788057,0.2336287881333656,-0.4188961122104275,-1.0474491419864955,-0.0330064524994971,-1.0289971117959538,4.369251381744225,backhand
1761072577580912128,10.549912214279177,0.3804017007350921,-3.4023241996765137,2.693352222442627,-0.0100493598729372,0.864596426486969,-0.5023664236068726,-0.6106324195861816,0.2109498381614685,0.4413617849349975,0.7680897331056263,-0.4447135295802602,0.2259350811255674,-0.4015238667785324,-1.0443466730210766,-0.0200013753428116,-0.9748833292113556,4.355991460937822,backhand
1761072577590957056,10.559957265853882,0.3498437404632568,-3.384920358657837,2.6719353199005127,-0.0039625912904739,0.8629269003868103,-0.5053132772445679,-0.6403245329856873,0.1944003701210022,0.4386782050132751,0.7778630188890953,-0.4469243795048965,0.218178731928669,-0.3841689345710636,-1.0410333632302495,-0.0078416898988911,-0.921970282686332,4.326582349953537,backhand
1761072577601003264,10.570003271102903,0.3082188069820404,-3.3803775310516357,2.6574008464813232,0.0019031258998438,0.8612975478172302,-0.5080974102020264,-0.6519885659217834,0.1928711533546447,0.4392497539520263,0.7870992600731372,-0.4490615818334763,0.2104637595750474,-0.3667744317763253,-1.0378178557756044,0.0037455750340438,-0.86999118049363,4.3108850998717,backhand
1761072577611049216,10.580049276351929,0.2464077472686767,-3.394700765609741,2.6465630531311035,0.0074874083511531,0.8597431182861328,-0.510671854019165,-0.6624404191970825,0.1782665252685547,0.4286863803863525,0.7957661916773817,-0.4511490905139831,0.2028017793177162,-0.3494168529887421,-1.0347664629262685,0.0146608267588117,-0.8191531869782753,4.311496962789608,backhand
1761072577621095168,10.590095281600952,0.1553548127412796,-3.4252524375915527,2.646588087081909,0.0127727845683693,0.8584707379341125,-0.5127034783363342,-0.676316499710083,0.1723672747611999,0.4265370965003967,0.8039767285985848,-0.453462794170816,0.1949865598998273,-0.3316220567770915,-1.0322804071760283,0.0249074629185343,-0.7682980227844537,4.331387523848753,backhand
1761072577631141120,10.600141286849976,0.1243826448917388,-3.4415059089660645,2.6365764141082764,0.017848776653409,0.8573712110519409,-0.5143890976905823,-0.6998708844184875,0.1557055711746215,0.4053497910499573,0.8116626436754664,-0.4558255014268819,0.1871591979980947,-0.3136852613186995,-1.0301403332532446,0.0346850619027488,-0.7179471058414219,4.337161416321815,backhand
1761072577641186304,10.610186338424684,0.1004855632781982,-3.4444761276245117,2.6283137798309326,0.0226883366703987,0.8562552332878113,-0.5160545706748962,-0.7351670265197754,0.1180947422981262,0.3946709632873535,0.8190058733510708,-0.4581470713319373,0.1790920605847749,-0.2953926578193312,-1.0279760068466672,0.043936699649112,-0.6674916170165224,4.333883531828198,backhand
1761072577651232256,10.620232343673706,0.0753412023186683,-3.4396562576293945,2.6205027103424072,0.0273830275982618,0.85515958070755,-0.5176411867141724,-0.7624446749687195,0.1026957035064697,0.3842946290969848,0.8258575984493262,-0.4603540604535464,0.1710366503032604,-0.2770919490612891,-1.0258585662660282,0.052850365523442,-0.6176644903355937,4.32480588261806,backhand
1761072577661278208,10.63027834892273,0.0978244021534919,-3.43935489654541,2.597119092941284,0.0318726226687431,0.8539528250694275,-0.51937335729599,-0.7826813459396362,0.1088614463806152,0.378534734249115,0.8323074444842332,-0.4623645342902619,0.1628876031792999,-0.2587487692789551,-1.023535055625652,0.0612905955341692,-0.568385647655891,4.31088845842336,backhand
1761072577671324160,10.640324354171751,0.1120872944593429,-3.453580856323242,2.559939384460449,0.0359356105327606,0.8525388240814209,-0.5214270949363708,-0.7880718111991882,0.1266329288482666,0.3831061720848083,0.8383590782316825,-0.4640965552992078,0.1545989655484838,-0.2405569247851992,-1.0208236898827658,0.0688090054297165,-0.5203244319944939,4.300357420593471,backhand
1761072577681370368,10.650370359420776,0.131228506565094,-3.4539456367492676,2.52662992477417,0.0395746678113937,0.8509600162506104,-0.523737370967865,-0.7877894043922424,0.1382825374603271,0.3751778602600097,0.8440629639947347,-0.465608834142793,0.1460811942933235,-0.2223205073633928,-1.0178104334191145,0.075418722516918,-0.4729961441367405,4.281450707332613,backhand
1761072577691415040,10.660415172576904,0.1661709994077682,-3.4382052421569824,2.478189706802368,0.0427746586501598,0.8491548895835876,-0.526408851146698,-0.8016247749328613,0.1016660332679748,0.352336585521698,0.8493852572056558,-0.4667947831302542,0.1374707147701334,-0.2043259095305614,-1.0143830434043384,0.0810793466696399,-0.4270728570961136,4.241496470721287,backhand
1761072577701460992,10.670461177825928,0.1651518046855926,-3.3900511264801025,2.435624599456787,0.0455837547779083,0.8471704721450806,-0.5293620824813843,-0.8312893509864807,0.0447819828987121,0.337925374507904,0.854357504279247,-0.4677038663465377,0.1287324405426143,-0.1864249063156335,-1.0106370268340057,0.0858988277700223,-0.3821326536542663,4.177557773175489,backhand
1761072577711507200,10.680507183074951,0.1269058287143707,-3.336080312728882,2.393888235092163,0.0482095889747142,0.8452730774879456,-0.5321552157402039,-0.8662790060043335,0.0129268765449523,0.3252612948417663,0.8588211066822207,-0.4684898787358279,0.1201650379435883,-0.1688307041839736,-1.0070760415904516,0.0903464788497096,-0.3384220512502283,4.108069841720268,backhand
1761072577721553152,10.690553188323976,0.094379037618637,-3.2840981483459473,2.3350412845611572,0.050507552921772,0.8435335159301758,-0.5346964001655579,-0.8932352066040039,-0.0145235061645507,0.3062418103218078,0.8627995583209995,-0.4692478080071475,0.1116167114044291,-0.1514105599920774,-1.0038287612162151,0.0941807879624242,-0.295725093158525,4.030710340785618,backhand
1761072577731599104,10.700599193572998,0.0397484488785266,-3.2321605682373047,2.2791805267333984,0.0525218918919563,0.841985821723938,-0.5369369983673096,-0.9037639498710632,-0.0430661439895629,0.295161485671997,0.8662638965796612,-0.4699766816720985,0.1032153973033001,-0.1343701269316969,-1.0009535273325851,0.0975074022887377,-0.2544177396228906,3.9551366286763185,backhand
1761072577741644032,10.710644245147703,0.0084752161055803,-3.2076833248138428,2.192674160003662,0.0540211349725723,0.840705394744873,-0.5387914180755615,-0.901524782180786,-0.054725170135498,0.2926976680755615,0.869231508572564,-0.4707682664239771,0.0947709729059031,-0.1176106209924769,-0.9985845417877124,0.0999295794741053,-0.2144429419074155,3.8855017840073875,backhand
1761072577751690240,10.720690250396729,0.0488979071378707,-3.2071943283081055,2.0822830200195312,0.054683644324541,0.8394588828086853,-0.5406648516654968,-0.8973503112792969,-0.0620693564414978,0.2559511661529541,0.8718136609508246,-0.4714257392185712,0.086170373040945,-0.1013578201587058,-0.996286696275101,0.100798702872751,-0.1766260159732084,3.8241847549923373,backhand
1761072577761736192,10.730736255645752,0.0954196006059646,-3.209306240081787,1.955428123474121,0.054228488355875,0.8379743695259094,-0.5430083870887756,-0.8902727961540222,-0.0764845609664917,0.2638489007949829,0.8741826612649851,-0.4717451356816486,0.0771513700899861,-0.0854913858945297,-0.9935606940481294,0.0995367317842538,-0.1409782985657941,3.7593151755181715,backhand
1761072577771782144,10.740782260894775,0.0677341744303703,-3.193521499633789,1.8710535764694216,0.0528163313865661,0.8365461230278015,-0.545344889163971,-0.8808650374412537,-0.0761549472808837,0.2626147866249084,0.8762112723877751,-0.4719231415842108,0.0679418962647175,-0.0701878916680513,-0.9909487095907056,0.0965482910531167,-0.1076590434140337,3.7018926204075697,backhand
1761072577781828096,10.7508282661438,0.0909452214837074,-3.1567914485931396,1.7698631286621094,0.0506735853850841,0.8352639079093933,-0.5475092530250549,-0.8859244585037231,-0.0961586833000183,0.2165308594703674,0.8779006492162313,-0.4720375299122646,0.0585315416562055,-0.0551822334256934,-0.9886125789209672,0.0922900100340696,-0.0757857649175015,3.620223581136823,backhand
1761072577791874048,10.760874271392822,0.1147969886660575,-3.0907938480377197,1.6495411396026611,0.0477749928832054,0.8339987993240356,-0.5496940612792969,-0.9063870310783386,-0.1746054887771606,0.1687736511230468,0.8793062968672877,-0.4719573956478958,0.0490834808571041,-0.0408340207674155,-0.9863157008245762,0.0866941174677574,-0.0461964907033781,3.505306110871953,backhand
1761072577801919232,10.77091932296753,0.1202167868614196,-3.0025670528411865,1.549660563468933,0.0442624911665916,0.8328794836997986,-0.551681637763977,-0.9199644327163696,-0.2520231604576111,0.1238099336624145,0.8804016721860756,-0.47179101260357,0.039653794782908,-0.0270883097362133,-0.984290277830446,0.0800604546858952,-0.0185763621040981,3.3810218639668013,backhand
1761072577811965184,10.780965328216553,0.1436994522809982,-2.9297330379486084,1.4269825220108032,0.0402239710092544,0.8316667079925537,-0.5538163781166077,-0.9174822568893432,-0.2967088222503662,0.0620104074478149,0.8813205522742602,-0.4713695802147209,0.0300421548716865,-0.0135027429339247,-0.9821025478755406,0.0725032114847693,0.0081427661863297,3.2619418027239164,backhand
1761072577822011136,10.791011333465576,0.1572373658418655,-2.8696980476379395,1.2912286520004272,0.0353965908288955,0.8303474187850952,-0.5561206936836243,-0.9055900573730468,-0.329950749874115,1.4126300811767578e-05,0.8820751131231815,-0.4706318894076478,0.0211018277636334,-0.0019444097311686,-0.9797308456603812,0.0635633766693638,0.0294924272622815,3.1507398981161123,backhand
1761072577832057344,10.8010573387146,0.0753474906086921,-2.802254438400269,1.1513195037841797,0.0297005120664834,0.8293373584747314,-0.55795818567276,-0.8888161182403564,-0.3811714649200439,-0.0385535955429077,0.8825465332216706,-0.4699815509299599,0.0117573910633156,0.0095191205146765,-0.977920660330998,0.0531805183267556,0.0498707636573871,3.030485733619098,backhand
1761072577842103296,10.811103343963625,0.0437197908759117,-2.7421324253082275,0.9439595937728882,0.0228791274130344,0.8287969827651978,-0.5590815544128418,-0.8621735572814941,-0.4702306985855102,0.0045161843299865,0.8826869561525713,-0.4695254226552166,0.0022616282932782,0.0201123373891982,-0.9769542311525176,0.0408998816169917,0.067300575378053,2.900389865641668,backhand
1761072577852148224,10.82114839553833,0.1413446813821792,-2.7362587451934814,0.7735400199890137,0.01458340883255,0.8281397223472595,-0.5603320002555847,-0.821071445941925,-0.5350489020347595,0.0062549114227294,0.8827703738564583,-0.4688043238429274,-0.0075164200583529,0.0297074421514843,-0.9757806712655184,0.0260204964631487,0.0810887936989337,2.847007973667696,backhand
1761072577862194176,10.831194162368774,0.1744800060987472,-2.7163946628570557,0.5932879447937012,0.0048904973082244,0.8272190690040588,-0.5618583559989929,-0.776954710483551,-0.4820652604103088,-0.011505901813507,0.8828561838400831,-0.4677148943558045,-0.0177088521715543,0.0386552117495692,-0.9741401330476782,0.0087039264936661,0.0921225416700491,2.7858991048428243,backhand
1761072577872240128,10.841240167617798,0.3374707698822021,-2.6405210494995117,0.3759111166000366,-0.0062505304813385,0.8258272409439087,-0.563888669013977,-0.7579096555709839,-0.4219118356704712,-0.0588377714157104,0.8830499225934122,-0.4661172940101806,-0.0281128302455882,0.0465543065729416,-0.971667543226688,-0.0110842346040955,0.0994892531609952,2.688409771771851,backhand
1761072577882286080,10.85128617286682,0.632618248462677,-2.541161298751831,0.1724248379468917,-0.0187593922019004,0.8231503367424011,-0.5675134658813477,-0.7596677541732788,-0.4915463924407959,-0.1635503768920898,0.8836864919754579,-0.4634119993169236,-0.038633933965247,0.0534310500580996,-0.9669370304526926,-0.0330433803023894,0.1034307365176243,2.624392676278283,backhand
1761072577892332032,10.861332178115845,0.7859868407249451,-2.4347076416015625,0.0398509055376052,-0.0321822464466095,0.8190054893493652,-0.5728824734687805,-0.7525772452354431,-0.6079611778259277,-0.1583186388015747,0.8848327053124312,-0.4595229629206357,-0.0489634240768847,0.0592643191845861,-0.9596755747944328,-0.0561170225104196,0.1045470473752799,2.5587427984340256,backhand
1761072577902377984,10.871378183364868,0.6938052177429199,-2.303610324859619,-0.0373030006885528,-0.0459115467965602,0.814691960811615,-0.5780736207962036,-0.7400228977203369,-0.6677955985069275,-0.2207392454147339,0.8859363906808249,-0.4554961377539513,-0.0590463553822009,0.0644473985875249,-0.9521978244494153,-0.079255268497284,0.1043493871814713,2.406112574845057,backhand
1761072577912423168,10.881423234939575,0.6018779873847961,-2.132690668106079,-0.14256551861763,-0.0595751367509365,0.8109251856803894,-0.5821092128753662,-0.7416028380393982,-0.6861235499382019,-0.3361188769340515,0.8867070415360376,-0.4518798756338116,-0.068919949082345,0.0693198302312958,-0.9457314757761874,-0.1019884735102566,0.1038277377791621,2.2205745933482715,backhand
1761072577922469120,10.8914692401886,0.5404630899429321,-1.9600094556808472,-0.2689961493015289,-0.0732616111636161,0.8074086904525757,-0.5854263305664062,-0.7422138452529907,-0.7281697988510132,-0.3737564086914062,0.8873640041105461,-0.4485435156289045,-0.0780740077988856,0.0727894975737801,-0.9397466906811168,-0.1244951313339739,0.1004112285462633,2.0508769700516027,backhand
1761072577932515072,10.901515245437622,0.3580085635185241,-1.8935256004333496,-0.3676002025604248,-0.0871680527925491,0.8045570254325867,-0.587443470954895,-0.7086998820304871,-0.7685005068778992,-0.38036048412323,0.887675909332708,-0.4457317995813232,-0.0871861938041238,0.0758506732514545,-0.934929183615125,-0.1473105382772501,0.0960233386827219,1.9618203893250625,backhand
1761072577942561024,10.911561250686646,0.5422934889793396,-1.7772809267044067,-0.5128911137580872,-0.1015115603804588,0.8016830682754517,-0.5890666842460632,-0.6345723867416382,-0.8073288798332214,-0.3268725872039795,0.8879678885391584,-0.4430119779993876,-0.0959533177886023,0.0777579110280034,-0.9301056214398024,-0.170650034888655,0.0889103757529245,1.9276584280387101,backhand
1761072577952607232,10.921607255935667,0.7904201745986938,-1.738532781600952,-0.7059977054595947,-0.1168501004576683,0.7969001531600952,-0.5927023887634277,-0.5590531826019287,-0.83974689245224,-0.21779865026474,0.88885742670121,-0.4389194665363842,-0.1048737088949412,0.0792690359565585,-0.9221464198148622,-0.1946517680338833,0.0809601707689946,2.036097503860752,backhand
1761072577962652160,10.931652307510376,0.8198958039283752,-1.6398831605911257,-0.8320112824440002,-0.1331708282232284,0.7911928296089172,-0.5968915224075317,-0.5354998111724854,-0.7235963940620422,-0.3112505674362182,0.890005150236517,-0.4343218463195576,-0.1136608048081749,0.0796029256790118,-0.9127569857963734,-0.219512167931403,0.0703090890095289,2.0133774320290287,backhand
1761072577972698112,10.9416983127594,1.193345546722412,-1.383486032485962,-0.99065899848938,-0.1494932919740677,0.7839804887771606,-0.6025168299674988,-0.5679749846458435,-0.6072989702224731,-0.403098464012146,0.8916006584705956,-0.4287788348080662,-0.1220258564827612,0.079415506258956,-0.901052102300649,-0.2432035022904931,0.0595882295998033,2.0783436788110725,backhand
1761072577982744320,10.951744318008425,1.686566948890686,-1.0894367694854736,-1.120322823524475,-0.1653670072555542,0.7734766602516174,-0.6118722558021545,-0.6373521089553833,-0.6184321045875549,-0.4727987647056579,0.8943551866365869,-0.4211775145804338,-0.1291254318429787,0.0778780819225753,-0.8843081667781357,-0.2639578255898955,0.0481894929449316,2.2992398258353206,backhand
1761072577992790272,10.961790323257446,1.7366628646850586,-0.7619247436523438,-1.1570149660110474,-0.1798295825719833,0.7606731653213501,-0.6237289309501648,-0.6854506134986877,-0.6219097375869751,-0.5408828854560852,0.8978382648177256,-0.4122140448728605,-0.1349634072949076,0.0758356519990345,-0.8643494989273138,-0.2807012203669426,0.0383815192253831,2.2215334460996417,backhand
1761072578002836224,10.97183632850647,1.5854510068893433,-0.5390780568122864,-1.2266868352890017,-0.1929429322481155,0.7479839324951172,-0.6350536346435547,-0.6943709254264832,-0.6060009002685547,-0.5171833038330078,0.901290074385879,-0.4037990132201203,-0.1393540484357258,0.0721323128438406,-0.8450193345183522,-0.294959040805503,0.0263429243759997,2.07581806487329,backhand
1761072578012881152,10.981881380081177,1.500494360923767,-0.3717145025730133,-1.3126282691955566,-0.2052643597126007,0.7354870438575745,-0.6456975340843201,-0.6374938488006592,-0.6606122255325317,-0.4676600098609924,0.9045559258660302,-0.3957751159837081,-0.1432245982318679,0.0680246896024037,-0.8263852830736501,-0.307792785311526,0.01430934967102,2.027966462168063,backhand
1761072578022927360,10.9919273853302,1.2017431259155271,-0.2923845052719116,-1.4354602098464966,-0.217508465051651,0.7237580418586731,-0.6548774242401123,-0.5607813596725464,-0.7056458592414856,-0.3789360523223877,0.907445448492193,-0.3885764358309541,-0.1468661078587363,0.0630989060679364,-0.8092328573764519,-0.3206727135643216,0.0005509899981415,1.8947879178580571,backhand
1761072578032973312,11.001973390579224,1.0058181285858154,-0.3072212636470794,-1.6749091148376465,-0.2304244190454483,0.7129905819892883,-0.6622303128242493,-0.5108628273010254,-0.7008904218673706,-0.1916972398757934,0.9098732415547054,-0.3823797991659124,-0.1505673607873288,0.0569721654993032,-0.7937541365415361,-0.3348492256881674,-0.0163632068963885,1.9777197869250862,backhand
1761072578043019264,11.012019395828249,1.297081708908081,-0.3938283026218414,-2.042581558227539,-0.2461268305778503,0.7013677358627319,-0.6689580678939819,-0.4913762211799621,-0.7303594350814819,0.0782293081283569,0.9121417519683332,-0.375982207839916,-0.1554295891279948,0.0497640546738487,-0.7773145357495834,-0.3525541400155568,-0.0366156313217495,2.45146101611695,backhand
1761072578053064960,11.022065162658691,2.178600788116455,-0.5945354104042053,-2.490154504776001,-0.2652125954627991,0.6835600137710571,-0.6800059080123901,-0.4695286154747009,-0.7849546670913696,0.5104349851608276,0.9155877356773432,-0.366020868567338,-0.161325038214897,0.0412570118263078,-0.7526290031779852,-0.3718692117601279,-0.0583262047398691,3.361642932534975,backhand
1761072578063111168,11.032111167907717,2.464777708053589,-0.5105456709861755,-2.6544249057769775,-0.2867453694343567,0.6601712703704834,-0.6942269206047058,-0.6056191325187683,-0.6054532527923584,0.0630013942718505,0.9198263408592768,-0.3529788853509009,-0.1682035594150502,0.032141804935252,-0.7210467790001294,-0.3916992785754154,-0.0794520269278122,3.6581084747024306,backhand
1761072578073156096,11.042156219482422,2.6882565021514893,-0.3215486705303192,-2.707953929901123,-0.3070459961891174,0.6341325640678406,-0.7096468210220337,-0.8227452635765076,-0.216270625591278,-0.0103849172592163,0.9242945310827247,-0.3388060021680278,-0.1743188713582977,0.0224287157717706,-0.6868861640876013,-0.408352895835933,-0.0993052308907569,3.829246800004736,backhand
1761072578083202048,11.052202224731444,3.240628957748413,-0.3168215751647949,-2.960654020309448,-0.3267624676227569,0.603904664516449,-0.7269976139068604,-0.940586805343628,-0.0961989164352417,0.0913469791412353,0.9291655278947818,-0.3225953250791741,-0.1800928993314641,0.0122595911426235,-0.6483908966132496,-0.4224117622184672,-0.1174659906357569,4.400854937425451,backhand
1761072578093248256,11.062248229980469,3.754269599914551,-0.6265564560890198,-3.2907652854919434,-0.3488492667675018,0.5669651031494141,-0.7462270259857178,-0.9425478577613832,-0.2053623795509338,0.0217092037200927,0.9344048341960594,-0.3031592043649169,-0.1870320007697332,0.0011181571569016,-0.6028168957537292,-0.4372981652744567,-0.1355435482247135,5.031525552524628,backhand
1761072578103294208,11.072294235229492,3.10274338722229,-0.6112656593322754,-3.3753252029418945,-0.3719590902328491,0.5284054279327393,-0.7631736993789673,-0.925007462501526,-0.3230526447296142,-0.0076698064804077,0.9388687534297316,-0.2836057888711041,-0.1948868764506363,-0.010600464497293,-0.5567212901299864,-0.4535044337396648,-0.1542602926724889,4.625308904153896,backhand
1761072578113340160,11.082340240478516,2.151961326599121,-0.6940943598747253,-3.3783886432647705,-0.394340455532074,0.4951886832714081,-0.7741342186927795,-0.905159056186676,-0.4235486686229706,0.233500063419342,0.9415523934395116,-0.2679965868557468,-0.2027577946189322,-0.0233702073643897,-0.5180519859236254,-0.471135686765716,-0.1766632477093607,4.06524468593571,backhand
1761072578123385088,11.092385292053224,1.3541393280029297,-0.8185675740242004,-3.5513031482696533,-0.4169950783252716,0.4674903154373169,-0.779466450214386,-0.9246950149536132,-0.6170264482498169,0.4080827236175537,0.9425228400301162,-0.2563313012126967,-0.2110948832285842,-0.0372010099993872,-0.4864496365576801,-0.4912345807482365,-0.2031436649769281,3.8878657697762717,backhand
1761072578133431296,11.102431297302246,0.6126474738121033,-0.6270754933357239,-3.7147483825683594,-0.4396414458751678,0.4439593851566314,-0.7807787656784058,-1.0770058631896973,-0.7819720506668091,0.6015337705612183,0.9421246828403382,-0.2479189437717331,-0.2194238567447979,-0.0528240959960108,-0.4600125794713421,-0.5128304890879783,-0.2346490866836348,3.8167939618618183,backhand
1761072578143477248,11.11247730255127,-0.5939650535583496,-0.5095493793487549,-4.115256309509277,-0.4609094560146332,0.4261529147624969,-0.7784318327903748,-1.3762487173080444,-0.8224999904632568,0.6548357009887695,0.9403237563679456,-0.2436618138080799,-0.2267443494540457,-0.0707604637644778,-0.4402359323995979,-0.5345903786384271,-0.2726096563840912,4.189005794672429,backhand
1761072578153523200,11.122523307800291,-1.455399513244629,-0.5103280544281006,-4.7422099113464355,-0.4836377501487732,0.4134358167648315,-0.7714695930480957,-1.678746223449707,-0.669981837272644,0.5892643928527832,0.9365862321435986,-0.2438173988397539,-0.2341330146276025,-0.0924180310444103,-0.4262242519209249,-0.5599676625936056,-0.3209986444125273,4.986700042068045,backhand
1761072578163569152,11.132569313049316,-1.586031794548035,-0.1389625072479248,-5.514880180358887,-0.5073004364967346,0.4000931680202484,-0.7632638812065125,-1.9780664443969729,-0.5334092378616333,0.604648768901825,0.9315083273495628,-0.2453133228036386,-0.2412248498873347,-0.1180012041629056,-0.4116184947408223,-0.5866025170995025,-0.377945141853849,5.740096761854556,backhand
1761072578173614336,11.142614364624023,-0.7255273461341858,0.1964870989322662,-6.475594997406006,-0.5305079221725464,0.3780631422996521,-0.7587025165557861,-2.2773990631103516,-0.5454520583152771,0.5362294316291809,0.9260793166885564,-0.243540907287874,-0.2476621804405637,-0.1474049407604439,-0.3877032571197326,-0.6102092940773279,-0.4391918095248847,6.519074142887549,backhand
1761072578183660288,11.152660369873049,0.3117999732494354,0.1443210989236831,-7.380427360534668,-0.5540968179702759,0.3415068984031677,-0.759177029132843,-2.4052231311798096,-0.7000731825828552,0.409842312335968,0.9204205614542866,-0.23538825327765,-0.2549585578669876,-0.1800400191210454,-0.3485197110371856,-0.630489753891484,-0.5010325775670182,7.388420387812379,backhand
1761072578193706240,11.16270637512207,0.5572367310523987,-0.2104400396347046,-8.249960899353027,-0.5792086124420166,0.2933816611766815,-0.7605554461479187,-2.409576177597046,-0.8487863540649414,0.2904016375541687,0.913160086921905,-0.2230499770427255,-0.2645202744064158,-0.2154447295270288,-0.2977622610835741,-0.650858532072811,-0.5645275544984375,8.271435947014837,backhand
1761072578203752192,11.172752380371094,0.0908813029527664,-0.6142773032188416,-9.2691650390625,-0.6058185696601868,0.2384478598833084,-0.7590299248695374,-2.5720837116241455,-1.0210864543914795,0.3240018486976623,0.9026315871298096,-0.2100092046631785,-0.2763714342968457,-0.2545017507481885,-0.2407672914069715,-0.6736109541886632,-0.634304706895627,9.289941686461477,backhand
1761072578213798400,11.182798385620115,-0.9091587066650392,-0.9307464361190796,-10.163455963134766,-0.6321674585342407,0.1807540953159332,-0.7534535527229309,-2.9886670112609863,-1.3202956914901731,0.4621480107307434,0.8876225661700897,-0.1989669051954173,-0.2892842758649387,-0.2980821219844229,-0.1817531147659631,-0.6980887502890629,-0.714281901533245,10.24639915271862,backhand
1761072578223843072,11.192843198776243,-2.4554524421691895,-1.2797611951828003,-10.582069396972656,-0.6565768718719482,0.1257429867982864,-0.7437039017677307,-3.6351406574249263,-1.4769240617752075,0.5781918168067932,0.867546042703757,-0.1925718803295166,-0.3017683138419895,-0.3452764011772161,-0.1260767307500091,-0.723257146997641,-0.8052927067059671,10.938337539809035,backhand
1761072578233889024,11.202889204025269,-4.193600654602051,-1.2002954483032229,-11.121931076049805,-0.6771401166915894,0.0779112577438354,-0.7317179441452026,-4.420882225036621,-1.1292723417282104,0.7274912595748901,0.8422439452850997,-0.192574011364289,-0.3115385877570805,-0.3955807426391133,-0.0779902968155414,-0.7466784919491053,-0.9087516549671044,11.946729530457219,backhand
1761072578243935232,11.212935209274292,-5.547344207763672,-0.8383920192718506,-11.688076972961426,-0.6911486983299255,0.0347867831587791,-0.7218749523162842,-5.202070236206055,-0.5449338555335999,0.9869048595428468,0.8116226603315477,-0.1968928965167434,-0.3166949753916854,-0.4496735236641654,-0.0347938017749671,-0.7636565341419823,-1.0258554612774882,12.964839847188975,backhand
1761072578253981184,11.222981214523315,-6.92072868347168,-0.1951945126056671,-12.00462818145752,-0.6970004439353943,-0.0027702723164111,-0.7170653939247131,-5.858068466186523,0.1099632382392883,1.0756621360778809,0.7762286368888908,-0.2041321955718164,-0.3159071892766529,-0.5059663012519554,0.0027702759101033,-0.7712095702119286,-1.1541917052321893,13.858054848463512,backhand
1761072578264027136,11.23302721977234,-7.5977888107299805,0.8600497841835022,-12.1630859375,-0.6924227476119995,-0.0347721315920352,-0.7206536531448364,-6.311452865600586,1.0085575580596924,1.2270623445510864,0.7365964087918957,-0.2119557996402575,-0.3078114810028475,-0.5636954979509436,0.0347791414278309,-0.7654224674571225,-1.2924037954360557,14.366862565178872,backhand
1761072578274072064,11.243072271347046,-8.115250587463379,2.0517563819885254,-12.045029640197754,-0.675878643989563,-0.0605314895510673,-0.7345229387283325,-6.494638442993164,2.1055753231048584,1.2009384632110596,0.6945277830284086,-0.2175078588559081,-0.2922821532454194,-0.6203970850739173,0.0605685160438127,-0.7438422316181772,-1.434530323767394,14.66798334405919,backhand
1761072578284118272,11.25311827659607,-8.091751098632812,3.074643611907959,-11.973259925842283,-0.64813631772995,-0.0796370133757591,-0.7573488354682922,-6.174297332763672,3.2846083641052246,0.9713075757026672,0.6502329479421866,-0.2195510397944034,-0.2704125057022752,-0.6751826303393949,0.0797214322814296,-0.7078495105471057,-1.5789708667976416,14.77460058459289,backhand
1761072578294164224,11.263164281845093,-7.913778305053711,4.347812175750732,-11.685321807861328,-0.6091412305831909,-0.0925821810960769,-0.7876392006874084,-5.5346879959106445,3.909644603729248,0.7178454995155334,0.6045710392814,-0.2163651795879045,-0.2436524600361098,-0.7268517337916867,0.0927149565888716,-0.6582946814927885,-1.7222777827650413,14.767467742657326,backhand
1761072578304210176,11.273210287094116,-7.942696571350098,5.6858062744140625,-11.114924430847168,-0.5575571060180664,-0.0954590812325477,-0.8246318697929382,-5.130568504333496,4.1513671875,0.4786692857742309,0.5589919807350061,-0.2074198291946916,-0.2113317144612634,-0.7744959786495813,0.0956046589066816,-0.5945245496014989,-1.86193670033758,14.797174288293903,backhand
1761072578314256128,11.28325629234314,-8.099262237548828,7.011497974395752,-10.317497253417969,-0.4939396977424621,-0.0842411369085311,-0.8654056787490845,-4.7918877601623535,4.269543647766113,0.0882755517959594,0.5140634445814393,-0.1932723311313404,-0.1730403630941136,-0.8175827169960205,0.0843410965731619,-0.5186426148749247,-1.996607566010779,14.873126847163897,backhand
1761072578324301312,11.293301343917848,-8.459281921386719,8.446234703063965,-9.391121864318848,-0.4180903136730194,-0.0557944439351558,-0.9066903591156006,-4.352585315704346,4.337090015411377,-0.0677816271781921,0.4708146132898225,-0.1737871114575984,-0.1282686661894557,-0.8553821973979897,0.0558234325639697,-0.432060253169301,-2.123016327091477,15.201694022549912,backhand
1761072578334347264,11.30334734916687,-8.451757431030273,9.731085777282717,-8.291149139404297,-0.3302547633647918,-0.0101890135556459,-0.9438368678092957,-3.8997104167938232,4.502361297607422,0.0544478297233581,0.4295397817420073,-0.1485101152941008,-0.0776294137812851,-0.8873635109264991,0.0101891896137617,-0.336591626880945,-2.2382277508017063,15.325449035171989,backhand
1761072578344393216,11.313393354415894,-8.386820793151855,10.88823127746582,-6.907871723175049,-0.2321972399950027,0.0495066083967685,-0.9714080095291138,-3.437892436981201,4.7515034675598145,0.331896960735321,0.392138432892971,-0.1172771835611548,-0.0232820107986121,-0.912102815662755,-0.0495268517381035,-0.2346291486607109,-2.3353565287272353,15.382166138482274,backhand
1761072578354439168,11.323439359664915,-7.534142971038818,11.350703239440918,-5.752506256103516,-0.1276629567146301,0.116460844874382,-0.9849563837051392,-2.957130193710327,4.900323867797852,0.7695175409317017,0.3583628470877111,-0.0808096919856139,0.0314898419578982,-0.9295452483818316,-0.1167257306596609,-0.1288942191156117,-2.4132025069922953,14.788275848266364,backhand
1761072578364485376,11.33348536491394,-6.487994194030762,11.35363483428955,-5.1446099281311035,-0.0235103033483028,0.1822051852941513,-0.982979416847229,-2.4168431758880615,4.35333251953125,1.0686575174331665,0.3276136859460292,-0.0412508453689288,0.0825145915264661,-0.9402973617346424,-0.1832287178405971,-0.0239128320453922,-2.4732656030388576,14.052263302571408,backhand
1761072578374531328,11.343531370162964,-5.598624229431152,11.034852027893066,-5.198485374450684,0.0751112103462219,0.2421401739120483,-0.9673295617103576,-2.0298993587493896,3.1286940574645996,1.644270420074463,0.2965718102063542,-0.0003686376605838,0.1278088158973742,-0.946419550990513,-0.2445710678349741,0.0774925180105682,-2.524724492330986,13.421505233327853,backhand
1761072578384576000,11.353576183319092,-5.725784778594971,10.79840850830078,-4.772677421569824,0.1660076528787613,0.3019835352897644,-0.938747763633728,-1.8878551721572876,1.7672150135040283,2.411327838897705,0.2649747075723755,0.0399213287327308,0.1703889410720252,-0.948241721345482,-0.3067726305169115,0.1750299138583938,-2.569490472244625,13.121306619894792,backhand
1761072578394622208,11.363622188568115,-6.467296600341797,10.82565212249756,-3.6466665267944336,0.2513731718063354,0.3668387830257416,-0.8956789970397949,-1.772170901298523,0.897504448890686,2.61482572555542,0.2362842658947541,0.0795146684841175,0.2140979394080729,-0.944462432832449,-0.3756086248709251,0.2736122545177628,-2.5989859829687467,13.12702730825877,backhand
1761072578404668160,11.37366819381714,-7.1551666259765625,10.753836631774902,-2.264791250228882,0.3337179720401764,0.4347929656505584,-0.8364134430885315,-1.4947593212127686,0.6341156959533691,2.9330625534057617,0.2128593735854312,0.1193846512575676,0.2598857383908676,-0.9342898974570824,-0.4498083501573323,0.3796326916233287,-2.6057274953126277,13.11375961177823,backhand
1761072578414714112,11.383714199066162,-7.458889961242676,10.435227394104004,-1.2550939321517944,0.4110235273838043,0.5004396438598633,-0.7619841694831848,-1.0999274253845217,1.1197690963745115,3.0273802280426025,0.1949446249166201,0.1588100723910697,0.3062470886798701,-0.9181441763023842,-0.5241064817577269,0.4946780369047605,-2.587907287389047,12.888144591022776,backhand
1761072578424760064,11.393760204315186,-6.343298435211182,9.689504623413086,-0.7658608555793762,0.4788292050361633,0.5554622411727905,-0.6798413395881653,-0.6246727705001831,1.7008854150772097,2.7529616355895996,0.1806017785094342,0.1963941186756609,0.3485809400926573,-0.8985007911099533,-0.5889187540619022,0.6136227095863317,-2.5532954571846704,11.6064842969525,backhand
1761072578434805248,11.403805255889893,-4.847272872924805,8.993417739868164,-0.1261030882596969,0.5360832214355469,0.5938196778297424,-0.5999941825866699,-0.0377311706542968,1.6760015487670898,2.15095853805542,0.1674273619804171,0.2322441820330745,0.3821852245877221,-0.8786154970088716,-0.6357978608031385,0.7292015579128562,-2.515119189617418,10.217314663708695,backhand
1761072578444851200,11.413851261138916,-3.9347481727600098,8.873496055603027,0.9766197800636292,0.5885522961616516,0.6159471869468689,-0.5236558318138123,0.5033513903617859,1.3422436714172363,1.2218523025512695,0.1573494250919949,0.2680193291233009,0.4078452183282184,-0.8585273663755061,-0.6635877412884605,0.8436812711174402,-2.4722512751178756,9.755765558204658,backhand
1761072578454895616,11.423895597457886,-4.166606426239014,9.16456127166748,2.312836170196533,0.642660915851593,0.6253134608268738,-0.4426852166652679,0.6789790987968445,0.9453957676887512,0.3136568665504455,0.1513150118098508,0.3067005350409879,0.4296419204359273,-0.8357311113677264,-0.6755331337805263,0.9676052562886378,-2.418360584937464,10.329520974541515,backhand
1761072578464941568,11.43394160270691,-4.701453685760498,9.158380508422852,3.454364776611328,0.6977352499961853,0.6232964396476746,-0.3530824184417724,0.3161960244178772,0.8055213093757629,-0.2874205112457275,0.150768948995279,0.3475062301053121,0.4502201835741984,-0.8085851976677381,-0.6729511490746584,1.1023278600264423,-2.3493343683341545,10.858740088348354,backhand
1761072578474987520,11.443987607955933,-5.173890113830566,9.031999588012695,4.276791572570801,0.7495614290237427,0.6103595495223999,-0.2561616599559784,-0.4225961565971374,0.9784923195838928,-0.5150632858276367,0.1544385336330591,0.3887936071396818,0.469849653339803,-0.7773220191538678,-0.6565143964562412,1.2414911365824737,-2.2715879164476345,11.253315139240872,backhand
1761072578485032448,11.45403242111206,-5.047422885894775,8.965137481689453,5.265302658081055,0.7965734601020813,0.5841761231422424,-0.1555917710065841,-0.9270057082176208,1.1435765027999878,-0.5792562365531921,0.1618516124835404,0.4301376297458402,0.4870171772981186,-0.7426976728116255,-0.6238645778105858,1.3778986859058102,-2.193300608015527,11.557403684904447,backhand
1761072578495078400,11.464078426361084,-4.962265968322754,8.25473403930664,6.03410005569458,0.8378018736839294,0.5430519580841064,-0.0564142726361751,-1.0606565475463867,1.066948652267456,-0.4537022709846496,0.1723535741309268,0.4713396809234024,0.4996316327681533,-0.7060462807193072,-0.5740674372274974,1.503561764124818,-2.1241872677872644,11.365521593054813,backhand
1761072578505124352,11.474124431610107,-4.8163323402404785,7.435699462890625,7.160065650939941,0.8726776838302612,0.4869164824485779,0.0366876497864723,-0.9893616437911988,1.1732702255249023,-0.6195275783538818,0.187879079874413,0.5102753539930688,0.5079004698681385,-0.6681000136749905,-0.5085559982292215,1.6128119048215173,-2.063925617307402,11.390927259878726,backhand
1761072578515170304,11.48417043685913,-3.9817957878112793,6.460755825042725,7.935278415679932,0.9016991257667542,0.4156745374202728,0.118968091905117,-0.9284172654151917,1.2676597833633425,-0.7830764055252075,0.2069184303957754,0.5478035945829156,0.5093086182611669,-0.6306351779423612,-0.4286843292188998,1.7019763390123803,-2.020762150450475,10.980196130352633,backhand
1761072578525216256,11.494216442108154,-2.985502004623413,5.592402935028076,8.509012222290039,0.9234189391136168,0.335115909576416,0.1870694756507873,-1.14905047416687,1.177701473236084,-0.8690915107727051,0.2271352110974998,0.5830469929743971,0.5035781368583668,-0.595713807634868,-0.3417282351389082,1.7706748146128208,-1.9971461766697696,10.610913335165938,backhand
1761072578535261440,11.50426149368286,-2.1620943546295166,5.014869213104248,9.122563362121582,0.9378039240837096,0.2468691170215606,0.2440890371799469,-1.5366504192352295,1.4449186325073242,-0.8790987730026245,0.2473193112793801,0.6175037785019942,0.4906461057004991,-0.5628398200585136,-0.2494480323350985,1.8254240655985423,-1.9919938912332904,10.63224941011001,backhand
1761072578545307392,11.514307498931885,-1.0659823417663574,4.572203636169434,9.255908966064451,0.9435094594955444,0.1552631556987762,0.2927173376083374,-1.990887999534607,1.7045848369598389,-0.6291431188583374,0.2670902955191855,0.6501487520788902,0.4729326338749372,-0.5313230276650565,-0.1558938313414876,1.8716238242634384,-1.9987699791145013,10.378497734818415,backhand
1761072578555353344,11.524353504180908,0.203344240784645,4.401523590087891,9.086785316467283,0.9396600127220154,0.0670739784836769,0.3354702293872833,-2.44704532623291,1.516544222831726,-0.6193752288818359,0.2823331583422649,0.6821146896661137,0.4499496240690054,-0.502546448373204,-0.0671243771704354,1.913704512817885,-2.022667942211116,10.098733890044134,backhand
1761072578565399296,11.534399509429932,1.205211877822876,4.377415657043457,8.649663925170898,0.9262754917144777,-0.0138085521757602,0.3765937685966491,-2.7617857456207275,1.0910942554473877,-0.503089189529419,0.2924697984029889,0.7130907548732329,0.4240264816118712,-0.4755675460411396,0.0138089908728717,1.9569517124502984,-2.059374187774334,9.768878621590984,backhand
1761072578575445504,11.544445514678957,2.3378586769104004,4.1579790115356445,8.04694938659668,0.9051459431648254,-0.0834720283746719,0.4168255627155304,-2.9138739109039307,0.5290287137031555,-0.2064372897148132,0.2969317712138954,0.7425292410361515,0.3963118781259403,-0.4510198079111242,0.0835692693476548,2.002352989034284,-2.1075180613972964,9.354558625826494,backhand
1761072578585491456,11.55449151992798,2.4702439308166504,3.9801082611083984,7.447879791259766,0.8785431981086731,-0.1420230865478515,0.4560603201389313,-2.919482707977295,0.0827122032642364,0.1824589073657989,0.2971813511810071,0.7697623441699156,0.3680979384199549,-0.4285475512377007,0.1425049206999552,2.0496145693346466,-2.162807156695185,8.798538528240666,backhand
1761072578595536384,11.564536571502686,2.013425350189209,3.705489158630371,6.795663356781006,0.848124086856842,-0.1932097524404525,0.4933104515075683,-2.8269450664520264,-0.0288971662521362,0.6086486577987671,0.2968240005730082,0.7936018132624297,0.3418353255606209,-0.4064974570305236,0.1944324895877397,2.097613081869921,-2.2160741446757197,7.997847960808447,backhand
1761072578605582592,11.574582576751707,1.9087995290756223,3.1392319202423096,6.108809947967529,0.8169220685958862,-0.2371341735124588,0.5257427096366882,-2.611508369445801,-0.1712978333234787,0.8375841975212097,0.2966356465687764,0.8135298790506124,0.3178686740972617,-0.3861811050363941,0.2394148133165659,2.14263472672273,-2.2655468682254947,7.128523807328877,backhand
1761072578615628544,11.584628582000732,1.993751883506775,2.4507741928100586,5.504055023193359,0.7868542671203613,-0.2732481360435486,0.5533495545387268,-2.2994275093078613,-0.4017243385314941,0.8531902432441711,0.2952195905595191,0.8306891971295588,0.2943301481521702,-0.3690130090235136,0.2767680651498423,2.1836953029730584,-2.3161636167409294,6.34633456535902,backhand
1761072578625674496,11.594674587249756,2.102977991104126,1.6664670705795288,4.732231616973877,0.7603585124015808,-0.3017330765724182,0.5751627087593079,-1.9965951442718504,-0.5390872359275818,0.9167196750640868,0.2938774095568362,0.8441622725165787,0.273809065019358,-0.3550418782181062,0.306509929870649,2.2184038832789432,-2.3609213583366397,5.440004136494885,backhand
1761072578635720448,11.60472059249878,2.772393226623535,1.042256474494934,3.929821014404297,0.7389799356460571,-0.3199078440666199,0.5929312705993652,-1.7775695323944092,-0.8458483815193176,0.856440007686615,0.2895845662664866,0.8555897292277103,0.2538342972894856,-0.3459408947605945,0.3256322070022374,2.246977373816362,-2.4074922489212827,4.920971039023526,backhand
1761072578645765632,11.614765644073486,2.596001386642456,0.5851686000823975,3.1549525260925293,0.7225471138954163,-0.3293557167053222,0.607824444770813,-1.593625545501709,-1.1386618614196775,0.8359469175338745,0.2830947080709331,0.865100696241058,0.235611957186834,-0.3405072417440977,0.3356211244816947,2.2701737247407134,-2.452381241856502,4.12739275231587,backhand
1761072578655811584,11.62481164932251,2.0951972007751465,0.2190939038991928,2.15342116355896,0.7112112045288086,-0.334235668182373,0.6184372305870056,-1.4089348316192627,-1.0837482213974,1.0705121755599976,0.2773051627666979,0.8719271000589168,0.2212730213399592,-0.3374656613017373,0.3407941546013493,2.2865340735615383,-2.4880584408189614,3.012486706447918,backhand
1761072578665857280,11.634857416152954,1.7531583309173584,-0.1274946630001068,1.151913285255432,0.7054051756858826,-0.3338298499584198,0.6252689361572266,-1.2208471298217771,-1.144487380981445,1.109121322631836,0.2717561570440544,0.8763201979527805,0.2114175119004734,-0.3369185883223532,0.3403635826803048,2.2960448432398546,-2.513808642745494,2.101600161568896,backhand
1761072578675903232,11.644903421401978,1.171769142150879,-0.5053735971450806,0.3417062759399414,0.704933226108551,-0.3297591507434845,0.6279555559158325,-1.0224075317382812,-1.2431931495666504,1.06126868724823,0.2670338045756947,0.8784301971396375,0.2057624315067595,-0.3386963485103931,0.3360484402406218,2.2985060634197683,-2.529577306182696,1.3210634255042821,backhand
1761072578685949440,11.654949426651,0.6934064626693726,-0.8242831230163574,-0.4410300552845001,0.7093111872673035,-0.3236920833587646,0.6261797547340393,-0.850653350353241,-1.256340265274048,1.030390739440918,0.2638415221202276,0.8783197807615435,0.2040691932318771,-0.3424876538107586,0.3296290770756755,2.2940268318835395,-2.535230447461991,1.1639427387227863,backhand
1761072578695994368,11.664994478225708,0.4104633629322052,-1.0958921909332275,-1.1920467615127563,0.7179852724075317,-0.3143144845962524,0.6210504770278931,-0.7599774599075317,-1.29940927028656,0.9070714712142944,0.2611722639122205,0.8764066245990243,0.2060016173205024,-0.3482296004750256,0.3197344527938341,2.283929056232963,-2.5326920456324933,1.6704596218080505,backhand
1761072578706040320,11.675040483474731,0.0502018555998802,-1.2992931604385376,-1.8530545234680176,0.7301451563835144,-0.3017788529396057,0.6130395531654358,-0.7501799464225769,-1.208719253540039,0.8389867544174194,0.258949590913605,0.8728500007524622,0.2113117633096485,-0.35556336999877,0.3065579498438767,2.2692293676474944,-2.522769029652222,2.2637345272830287,backhand
1761072578716086272,11.685086488723757,-0.21121147274971,-1.4376962184906006,-2.46140456199646,0.7448970079421997,-0.2863150238990783,0.6026208996772766,-0.7705776691436768,-0.9376077055931092,0.8267309069633484,0.2571559128406991,0.8677759573977182,0.219716472174131,-0.3640883616927172,0.290378621308618,2.251000367393733,-2.5062816076367036,2.8583374749494257,backhand
1761072578726132480,11.695132493972778,-0.4355814456939697,-1.597496509552002,-2.9357526302337646,0.7614911198616028,-0.2677375376224518,0.5902943015098572,-0.7606062889099121,-0.651757001876831,0.7933114767074585,0.2554735071574834,0.8613558466187481,0.23067998270916,-0.3736120729710425,0.2710440799851339,2.2302201535539643,-2.4847967862657496,3.3705147677748193,backhand
1761072578736178432,11.705178499221802,-0.7315291166305542,-1.818602919578552,-3.269887924194336,0.779528021812439,-0.2470835447311401,0.5755747556686401,-0.7078115344047546,-0.3734151721000671,0.8027517795562744,0.2543183185812959,0.8535225317920302,0.243488562174993,-0.3841028196676941,0.2496693178974836,2.206808171200754,-2.4593107628973385,3.812429470084641,backhand
1761072578746223360,11.715223550796509,-0.9963176250457764,-2.077141284942627,-3.4886624813079834,0.7986631989479065,-0.2251864820718765,0.558057427406311,-0.653170645236969,-0.1477840989828109,0.800524115562439,0.2540763843831256,0.8441867523816319,0.2576382070946308,-0.3954952000189356,0.2271344350893658,2.1806757518255706,-2.430415064153928,4.180661506995746,backhand
1761072578756269568,11.725269556045532,-1.2687034606933594,-2.281017780303955,-3.6103804111480713,0.8183260560035706,-0.2025697976350784,0.5378731489181519,-0.6340458393096924,-0.0080167055130004,0.7467794418334961,0.2547950551772402,0.8334697256523618,0.2725156770604614,-0.4076061557497013,0.2039814117462821,2.152275522124636,-2.3992796674869097,4.455053007365883,backhand
1761072578766315520,11.735315561294556,-1.50789213180542,-2.488604784011841,-3.697718620300293,0.8379402756690979,-0.1795500218868255,0.5153809785842896,-0.6377451419830322,0.1011809110641479,0.6930081844329834,0.2565805975598983,0.8214282520440594,0.288003690467235,-0.4200902353261401,0.1805290260763831,2.122213608927664,-2.366054707347598,4.705317783857199,backhand
1761072578776361472,11.74536156654358,-1.6869730949401855,-2.7257542610168457,-3.756993770599365,0.8574143052101135,-0.1558927595615387,0.490446537733078,-0.6564104557037354,0.2229551374912262,0.6254895925521851,0.2592282249315901,0.8080797675775975,0.3036945213363649,-0.4331020087505344,0.156531191953345,2.090377983621313,-2.331693335731042,4.938685726671215,backhand
1761072578786407424,11.755407571792604,-1.8087962865829468,-2.8990843296051025,-3.794088125228882,0.8763396739959717,-0.1313970535993576,0.4634257555007934,-0.668011486530304,0.3549535870552063,0.550780177116394,0.2625820513283334,0.7934860938022112,0.3195194818438019,-0.4464725549110666,0.131778120831775,2.057233056525976,-2.296510769163968,5.106029637450309,backhand
1761072578796452608,11.76545262336731,-1.8867554664611816,-3.0991666316986084,-3.864593982696533,0.8944113254547119,-0.1056962981820106,0.4345766305923462,-0.6611195802688599,0.4411913156509399,0.5057768225669861,0.2663487808658267,0.7777296270319959,0.3352982904162915,-0.4601848340857674,0.1058940970825779,2.023084307936594,-2.261181356457199,5.30092130222186,backhand
1761072578806498560,11.775498628616331,-1.9106515645980835,-3.243170738220215,-3.9369571208953857,0.9114136695861816,-0.0783429816365242,0.4039649069309234,-0.6462769508361816,0.4498334527015686,0.4325982332229614,0.2702280435349214,0.7608385517058255,0.3508662813251798,-0.4743357546644738,0.0784233439677893,1.9880051726438053,-2.2263686644760785,5.446868569216431,backhand
1761072578816544512,11.785544633865356,-1.9258480072021484,-3.3452916145324707,-4.023466110229492,0.92674720287323,-0.0489839650690555,0.3724784851074219,-0.6335495710372925,0.4398378431797027,0.3771400451660156,0.2737006459366387,0.7431270750831437,0.3660620135562187,-0.4887215055488569,0.0490035742508236,1.9529570271563983,-2.1930560546541367,5.575674494917274,backhand
1761072578826590464,11.79559063911438,-1.932604193687439,-3.441638708114624,-4.03712797164917,0.9402894973754884,-0.0181817263364791,0.339889258146286,-0.6137973666191101,0.4429406225681305,0.3306428790092468,0.2775652616407446,0.724145082828678,0.3815213269124202,-0.5030037456389201,0.0181827276930905,1.9176552745525624,-2.159026555435128,5.646081670160583,backhand
1761072578836636416,11.805636644363403,-1.8991819620132449,-3.5892839431762695,-4.100305080413818,0.95176500082016,0.0142925987020134,0.3064948618412018,-0.6029491424560547,0.3863269090652466,0.2681969106197357,0.2810356166577352,0.7043779857122916,0.3963572728636813,-0.5174664748266188,-0.0142930850279311,1.882337702161951,-2.126914982269795,5.7708191014835,backhand
1761072578846681344,11.815681457519531,-1.9062068462371824,-3.778927803039551,-4.149418354034424,0.9611697793006896,0.0484217181801795,0.2716759145259857,-0.6211277842521667,0.3512974977493286,0.2198096215724945,0.284444940946317,0.6834539544947358,0.4107659320135329,-0.5322152132468132,-0.0484406588417099,1.8462619156516509,-2.0959116517286205,5.927190950022158,backhand
1761072578856727296,11.825727462768556,-1.9240306615829468,-3.9628851413726807,-4.207021713256836,0.9682488441467284,0.0840332061052322,0.2354412823915481,-0.6609978675842285,0.3629577755928039,0.1612415313720703,0.2878807350411098,0.6613137246387951,0.4247173135175273,-0.5471782711247624,-0.0841324251832767,1.809328891244777,-2.0659427089346796,6.091418909107973,backhand
1761072578866773248,11.835773468017578,-1.933869242668152,-4.180950164794922,-4.258687496185303,0.9727454781532288,0.121107630431652,0.197734847664833,-0.7219673991203308,0.3739027380943298,0.1389350593090057,0.291358991585688,0.6378713463622384,0.4381638578605907,-0.5623543850784802,-0.1214056491991401,1.771338941474147,-2.0370619147038176,6.273484973952008,backhand
1761072578876819456,11.845819473266602,-2.003330945968628,-4.394860744476318,-4.332531929016113,0.9743658900260924,0.1596280634403228,0.1585252434015274,-0.7797399163246155,0.3793429136276245,0.1094801574945449,0.2949197195109534,0.6130101802707908,0.4510888362989328,-0.5777195047438433,-0.1603138675379561,1.73207899343377,-2.0092348119124575,6.4883718110446305,backhand
1761072578886865408,11.855865478515623,-2.054664373397827,-4.4286017417907715,-4.456448554992676,0.9726080894470216,0.19971664249897,0.1189411655068397,-0.8373388051986694,0.3890590369701385,0.0784465223550796,0.2984409611518495,0.5867938320720733,0.4638357263992073,-0.5928427328007115,-0.2010687351478259,1.6924830647459617,-1.9819095372671869,6.610150739430898,backhand
1761072578896910336,11.865910530090332,-2.2057113647460938,-4.453891754150391,-4.623570442199707,0.9669764637947084,0.2418569177389145,0.0803847089409828,-0.8577998876571655,0.3876444101333618,0.1311020851135254,0.3014593878079654,0.5593943484607456,0.4767287661782156,-0.6073959771992902,-0.2442791248368888,1.6537355755501075,-1.955011734449828,6.788204329293698,backhand
1761072578906956544,11.875956535339355,-2.317098379135132,-4.577761650085449,-4.688496112823486,0.9574017524719238,0.2855676710605621,0.0428116098046302,-0.7990308403968811,0.4125218689441681,0.1889083385467529,0.3043178798963671,0.5306250589996342,0.4897375340148849,-0.6212767272323777,-0.2895987207637738,1.6154830104431823,-1.9279998489926145,6.950312397550534,backhand
1761072578917002496,11.88600254058838,-2.347013235092163,-4.7421698570251465,-4.677142143249512,0.944061279296875,0.3297233581542969,0.0055262078531086,-0.7188875079154968,0.4154700338840484,0.1919072866439819,0.3073312104224325,0.5005834114280715,0.5021746231191093,-0.6346529074047196,-0.3360105309265468,1.57664991348445,-1.9017083287390748,7.062032618640069,backhand
1761072578927048448,11.896048545837402,-2.13920521736145,-4.8899760246276855,-4.704955101013184,0.9268436431884766,0.3741000592708587,-0.0317813158035278,-0.7097873687744141,0.4203030169010162,0.1806613206863403,0.3100833754869046,0.4695514483950856,0.5134498807481057,-0.6478726460199506,-0.3834261920598097,1.5365199219592247,-1.8779977386581237,7.115101333499756,backhand
1761072578937094400,11.906094551086426,-1.8519046306610107,-5.028758525848389,-4.697188854217529,0.9055878520011902,0.4184183478355407,-0.0695462375879287,-0.7603700160980225,0.4214406311511993,0.1067014411091804,0.3121329286082271,0.437832971118663,0.5230001616141694,-0.6613215243120103,-0.4317032062292253,1.494149982480875,-1.858924414701003,7.126117189924815,backhand
1761072578947139584,11.916139602661133,-1.6154593229293823,-5.105125904083252,-4.661586284637451,0.8803783059120178,0.4619486927986145,-0.1074134409427642,-0.8341745734214783,0.4134938716888428,0.0087501257658004,0.3135843157077004,0.4056571513696756,0.5307876756550185,-0.6748123333338394,-0.4801911310523522,1.4493881040799472,-1.844650753710157,7.099465191808556,backhand
1761072578957185536,11.926185607910156,-1.4585981369018557,-5.131481647491455,-4.652641296386719,0.8512862324714661,0.5043979287147522,-0.1445485204458236,-0.9175705313682556,0.369442343711853,-0.0652140825986862,0.3144376042336303,0.3731776667631765,0.5370886024158785,-0.6880429878652261,-0.5286845337243652,1.4026004244478196,-1.8348104627115347,7.078607451777381,backhand
1761072578967231488,11.93623161315918,-1.4526289701461792,-5.106863498687744,-4.659885406494141,0.8183664083480835,0.5458192825317383,-0.1798826605081558,-0.9737924337387084,0.3708982467651367,-0.0750459432601928,0.3147157800391964,0.3403742422961984,0.5424057960006305,-0.7006392282251661,-0.5773665616552858,1.354430133558384,-1.8284399496372987,7.064327124418449,backhand
1761072578977277440,11.946277618408203,-1.5870622396469116,-5.05604887008667,-4.670233726501465,0.781802237033844,0.58632892370224,-0.2121411114931106,-0.9829739928245544,0.4508568048477173,-0.0273608863353729,0.3146010673637124,0.3071154791439853,0.5473659913047559,-0.7121073224664677,-0.6265196115979709,1.305827747409068,-1.8238784687797296,7.063531679646487,backhand
1761072578987323648,11.956323623657228,-1.8352208137512207,-4.982892990112305,-4.648265838623047,0.7420142292976379,0.6259059309959412,-0.2401183098554611,-0.9546454548835754,0.5467167496681213,0.0282042026519775,0.3142008037879393,0.2734427402980349,0.5524218623492401,-0.722036755339488,-0.6762925799298067,1.257828137169484,-1.8198250986900473,7.057168929014386,backhand
1761072578997369600,11.96636962890625,-2.005615711212158,-4.998066425323486,-4.596259117126465,0.6993950605392456,0.664298415184021,-0.2637316882610321,-0.8760612607002258,0.5671470165252686,0.0942218005657196,0.3137343150274107,0.2392930442062436,0.5575598610154421,-0.7303675621655552,-0.7265547822194331,1.2101986047327813,-1.815924368577077,7.080166681990975,backhand
1761072579007414272,11.976414442062378,-2.1136152744293213,-5.101159572601318,-4.467528343200684,0.6544034481048584,0.7008464336395264,-0.2838495075702667,-0.7684781551361084,0.4931538105010986,0.1402032375335693,0.3134582102107827,0.2047210844156852,0.5622850878135615,-0.7373389778790123,-0.7765834034101803,1.161535145518964,-1.8131102306585605,7.102676116137103,backhand
1761072579017460224,11.9864604473114,-1.9926884174346924,-5.205968379974365,-4.271158218383789,0.6076712608337402,0.7346852421760559,-0.301617681980133,-0.7219595909118652,0.4127909541130066,0.069531500339508,0.3137636451827741,0.1698731301595271,0.5659808134642719,-0.7432100454370537,-0.8252025768519461,1.1100729036520167,-1.812582434677858,7.0225142526547195,backhand
1761072579027506432,11.996506452560425,-1.6410139799118042,-5.174170970916748,-4.024749279022217,0.5602206587791443,0.7647149562835693,-0.3183771073818207,-0.7989749312400818,0.3630468845367431,-0.1658605337142944,0.3141725528037516,0.1358939589656948,0.5677537145385996,-0.7486549445567219,-0.8705988391892624,1.0540068394073745,-1.8183679168309168,6.7574831762671375,backhand
1761072579037552384,12.006552457809448,-1.243097901344299,-4.978476047515869,-3.798724174499512,0.5129667520523071,0.790501058101654,-0.3346240520477295,-0.9588438868522644,0.3955340981483459,-0.3671581745147705,0.3146014335663716,0.1034176049253255,0.5674440748045783,-0.7538819914095025,-0.9116267160608168,0.9927843096749608,-1.8318351155550323,6.38442021658528,backhand
1761072579047598336,12.016598463058472,-1.089186191558838,-4.667457103729248,-3.615581750869751,0.4665741324424743,0.8126639127731323,-0.3491219580173492,-1.086279273033142,0.5216715335845947,-0.435530811548233,0.31463264530692,0.0728483242627148,0.5658022131331013,-0.758661598272263,-0.9487090453513064,0.9284053738733662,-1.852059055901622,6.003658365718143,backhand
1761072579057643520,12.02664351463318,-0.9909014701843262,-4.3649821281433105,-3.5513904094696045,0.4209203720092773,0.8323367238044739,-0.3606131970882416,-1.0926580429077148,0.6359555721282959,-0.3903176188468933,0.3140706797878435,0.0438118603693785,0.5637143999271491,-0.76267054434458,-0.9833102394202652,0.8624107173029197,-1.8771735664293796,5.713784082645812,backhand
1761072579067689472,12.036689519882202,-0.914779782295227,-4.195864200592041,-3.4616105556488037,0.3755179047584533,0.8498883247375488,-0.3696975111961365,-0.951247215270996,0.6677509546279907,-0.2666245400905609,0.3124560049980476,0.0162136016907426,0.5611491429864884,-0.7663028966164799,-1.0157733887306424,0.7932083393172695,-1.9092481023702348,5.515872195662732,backhand
1761072579077735424,12.046735525131226,-1.029529690742493,-4.1270833015441895,-3.2183544635772705,0.3311157524585724,0.8653186559677124,-0.3762791752815246,-0.714813232421875,0.7250896692276001,-0.1506220698356628,0.311061872485922,-0.0105614467935475,0.5583447546168917,-0.7690124691228444,-1.0457858362363808,0.72163999498602,-1.9445091039866615,5.333906018597718,backhand
1761072579087781376,12.056781530380247,-1.145697832107544,-4.00674295425415,-2.9867119789123535,0.2885394990444183,0.8791486024856567,-0.3792661428451538,-0.5169178247451782,0.7537707090377808,-0.1573244333267212,0.3103766102299828,-0.0366984170383527,0.5558958116712202,-0.7702594071881178,-1.0740726820799442,0.6503670491169675,-1.9792779635046245,5.12709089727691,backhand
1761072579097827328,12.066827535629272,-0.968008279800415,-3.8562588691711426,-2.904564380645752,0.2473847866058349,0.8911542892456055,-0.3803218901157379,-0.4204194545745849,0.5677842497825623,-0.3511386811733246,0.3096688765764985,-0.0617661343158045,0.55319436368419,-0.7708865625044784,-1.0998830407038032,0.5766996677611513,-2.0179058433663615,4.923846741841109,backhand
1761072579107872512,12.07687258720398,-0.6753673553466797,-3.738170862197876,-2.764029741287231,0.2072577476501464,0.9008142948150636,-0.3815468251705169,-0.3718695640563965,0.3508946895599365,-0.5073844194412231,0.3088568633734568,-0.0856291249606045,0.549449035487408,-0.7716093415016873,-1.1216412717642286,0.4976105571852054,-2.063613742568126,4.697861520987345,backhand
1761072579117918464,12.086918592453005,-0.2778816521167755,-3.623872756958008,-2.5618934631347656,0.168931633234024,0.9076987504959106,-0.3841160833835602,-0.3120743632316589,0.3159798383712768,-0.5945979356765747,0.3084240799812602,-0.1079657713175745,0.5443209997958339,-0.7726142218829088,-1.1377670852907888,0.414333571565565,-2.11478975726025,4.446680794441875,backhand
1761072579127964416,12.096964597702026,0.0378139950335025,-3.5365869998931885,-2.422823905944824,0.1322647631168365,0.9118785262107848,-0.3885658979415893,-0.2675491869449615,0.3776569366455078,-0.6157979965209961,0.3084209812075863,-0.1288109106951028,0.537703257434386,-0.7740538565922686,-1.1478377010934002,0.3280899375818309,-2.1700294809036538,4.28706813396424,backhand
1761072579138010624,12.10701060295105,0.1646316647529602,-3.4623498916625977,-2.303636312484741,0.096875786781311,0.9141026139259338,-0.3937405347824096,-0.212628960609436,0.4851130843162536,-0.5760775804519653,0.3086980599327389,-0.1485524277797269,0.5301527258216101,-0.7756131948430917,-1.1532891855862952,0.2412478351916329,-2.226678207085761,4.16193592184378,backhand
1761072579148056576,12.117056608200071,0.1067286804318428,-3.4004392623901367,-2.213390588760376,0.0624809451401233,0.9153300523757936,-0.3978277146816253,-0.129528060555458,0.4757068753242492,-0.4887689054012298,0.3090846422597598,-0.1676750459546274,0.5224664812198169,-0.7767756499066206,-1.1563267280263885,0.1557827407661925,-2.2824167862168188,4.05875302116846,backhand
1761072579158101248,12.1271014213562,-0.1320895254611969,-3.354744672775269,-2.061816930770874,0.029204549267888,0.9163680672645568,-0.399270236492157,-0.0460197553038597,0.3677811026573181,-0.442068874835968,0.3094994023778954,-0.1864694977254778,0.5153581296824691,-0.7770748565677326,-1.1589120020084756,0.0730147900156478,-2.3357415860695907,3.9399046331432994,backhand
1761072579168147200,12.137147426605225,-0.2622403502464294,-3.2564947605133057,-1.8561044931411743,-0.00209277914837,0.9174879789352416,-0.3977580964565277,-0.0291572231799364,0.3296891450881958,-0.5054095983505249,0.3101725844653633,-0.2047595048489227,0.5091114747876198,-0.7763195733789514,-1.1617183888782356,-0.005261388119264,-2.38482266014539,3.7574794764584993,backhand
1761072579178193408,12.147193431854248,-0.153110921382904,-3.069751501083374,-1.7486443519592283,-0.0312846563756465,0.9180629253387452,-0.3951982855796814,-0.1068531572818756,0.3966190218925476,-0.6048169136047363,0.3109883026615105,-0.2220169798689929,0.5030997058568925,-0.7751679708465097,-1.163166259584169,-0.0789971817761822,-2.4304826620811943,3.5361807507944585,backhand
1761072579188239360,12.157239437103271,0.0944709107279777,-2.858275890350342,-1.651028037071228,-0.0587479583919048,0.9174211621284484,-0.3935568332672119,-0.1866743862628936,0.5137616395950317,-0.6644113063812256,0.3117562440504794,-0.2378820110422664,0.4966223280972265,-0.7743296325420841,-1.1615504793700744,-0.1481802343915645,-2.4734249988143753,3.302205232496473,backhand
1761072579198285312,12.167285442352297,0.2566498219966888,-2.697646379470825,-1.511896014213562,-0.0842716842889785,0.9155165553092957,-0.3933545649051666,-0.1864192485809326,0.5855057835578918,-0.688615620136261,0.3127267942383782,-0.2522847319318975,0.4895662627161032,-0.7738729545916447,-1.1567901581615847,-0.2110481705728602,-2.5115929264227934,3.1030621453006444,backhand
1761072579208330496,12.177330493927002,0.2351341247558593,-2.546515464782715,-1.4313570261001587,-0.1080961301922798,0.9130775928497314,-0.3931978642940521,-0.1320314556360244,0.561028242111206,-0.653631329536438,0.3137676323567132,-0.2656448248123262,0.4825286414979541,-0.7734008482116328,-1.150768557402447,-0.2682875004625122,-2.5453893365650524,2.9306675016399457,backhand
1761072579218376448,12.187376499176024,0.0153596205636858,-2.4016823768615723,-1.364559292793274,-0.1306943595409393,0.910866379737854,-0.3914607465267181,-0.0671968907117843,0.436393141746521,-0.5948368310928345,0.3144606790665863,-0.2784128198014592,0.4761889553769317,-0.7725573842884106,-1.145378455350685,-0.3222273878009871,-2.5772906449095196,2.7623063227708458,backhand
1761072579228422400,12.197422504425049,-0.1994030177593231,-2.265347957611084,-1.2455575466156006,-0.1517921388149261,0.9094026684761048,-0.3872285783290863,-0.0153221189975738,0.3403379321098327,-0.5784544348716736,0.3147869076286954,-0.2907292228112529,0.4710225336523887,-0.7710535328962179,-1.141845654629196,-0.3735875683125985,-2.607979582545158,2.592870327354476,backhand
1761072579238468352,12.207468509674072,-0.3480275273323059,-2.1079976558685303,-1.0984768867492676,-0.1709377318620681,0.908583164215088,-0.3811259865760803,-0.0080173462629318,0.3209242820739746,-0.5982441306114197,0.3149973772552218,-0.3023982117301165,0.4668964918868054,-0.768986158559976,-1.1398794934502747,-0.4216118055969773,-2.6366159006372114,2.402379809199749,backhand
1761072579248514304,12.217514514923096,-0.3215189576148987,-1.882045865058899,-0.970999836921692,-0.1879542917013168,0.9080134630203248,-0.374412477016449,-0.0629154592752456,0.3494328260421753,-0.6679611802101135,0.3151586704045676,-0.3130641654284092,0.4634485871494894,-0.7667341503279702,-1.1385176805563493,-0.4652446910983006,-2.6625361044079425,2.1420344912239444,backhand
1761072579258559488,12.227559566497805,-0.2371768951416015,-1.592587947845459,-0.9005320072174072,-0.2029455602169037,0.9072332382202148,-0.3684304058551788,-0.1428033262491226,0.3705072402954101,-0.7650229930877686,0.315147588308984,-0.3223563587037684,0.4602946663556127,-0.7647857091619361,-1.1366589511215162,-0.5034865740862176,-2.685446842072644,1.844870496060532,backhand
1761072579268605440,12.237605571746826,-0.1875898987054824,-1.3194382190704346,-0.8680987358093262,-0.2163493186235427,0.9061313271522522,-0.3634816408157348,-0.1813557296991348,0.3763088583946228,-0.7905253171920776,0.3147550090693176,-0.3302977903002191,0.4573429169819171,-0.7633282434208771,-1.1340465940680555,-0.536892845699825,-2.7062040163511263,1.5905038821561686,backhand
1761072579278651392,12.24765157699585,-0.1734452545642852,-1.126861572265625,-0.8129920363426208,-0.2284608036279678,0.904874622821808,-0.3591760694980621,-0.1426481753587722,0.3360921144485473,-0.7479559183120728,0.3140159477749439,-0.3371769921826189,0.4546687176621529,-0.7622217217664042,-1.1310851605073136,-0.5665195514343302,-2.725404178555092,1.400305791795616,backhand
1761072579288697600,12.257697582244871,-0.1993234604597091,-1.0007004737854004,-0.7043033838272095,-0.2392005920410156,0.90376478433609,-0.354953795671463,-0.0471458137035369,0.2984446287155151,-0.6979178190231323,0.3131988571460902,-0.3432818183800101,0.4524164997136428,-0.7611723554874351,-1.1284851163134568,-0.5929882217311941,-2.7428569233262516,1.2398284303057483,backhand
1761072579298743552,12.267743587493896,-0.1074813455343246,-0.8900662064552307,-0.6170725226402283,-0.2485387176275253,0.9027041792869568,-0.3512174487113952,0.0297582000494003,0.2776852250099182,-0.6706789135932922,0.3125519925843291,-0.3486364982070524,0.4503819092579982,-0.7602104959699694,-1.1260136059886203,-0.6158411764674482,-2.757638878332376,1.0883696934907041,backhand
1761072579308788480,12.277788639068604,-0.0501765124499797,-0.7661285400390625,-0.5192642211914062,-0.2566357851028442,0.9015095829963684,-0.3484516441822052,0.0518933534622192,0.2404734492301941,-0.6519908308982849,0.3121152427767257,-0.3532085335003862,0.4483502007433343,-0.7594800399656579,-1.1232452332228458,-0.6348071192845575,-2.7694207067837615,0.9268796867304548,backhand
1761072579318834432,12.287834644317629,0.034365102648735,-0.6131385564804077,-0.4375709593296051,-0.2634122669696808,0.9002950191497803,-0.3465297520160675,0.0279233753681182,0.2068216800689697,-0.6547672748565674,0.3118151504422602,-0.3569529384937769,0.4464523804336355,-0.7589704822035704,-1.1204468232227225,-0.6499612638949623,-2.778512644459086,0.7540478725993245,backhand
1761072579328880640,12.29788064956665,0.1130897402763366,-0.4670242369174957,-0.3713845014572143,-0.2690971493721008,0.8988786935806274,-0.3458375930786133,-0.0161963701248168,0.1595776677131652,-0.6768522262573242,0.3115810345112231,-0.3598316328553453,0.4445249165424621,-0.7588385447785216,-1.117203883790341,-0.6612455825462449,-2.784990623168844,0.6073115964204554,backhand
1761072579338926336,12.307926416397097,0.1456469893455505,-0.3270216882228851,-0.3178631961345672,-0.2738124430179596,0.8973860740661621,-0.3460127115249634,-0.044028103351593,0.1593459844589233,-0.6370195150375366,0.3113294120062749,-0.3619626105819976,0.4426925665146826,-0.7589994926751005,-1.1138094091521429,-0.6694358576205833,-2.789615560541598,0.4787413096135021,backhand
1761072579348972288,12.317972421646118,0.1721241325139999,-0.217493861913681,-0.3045609593391418,-0.2776462137699127,0.8959347009658813,-0.3467184901237488,-0.0411556661128997,0.1597446203231811,-0.5673897862434387,0.3110053487502175,-0.363457701542234,0.4410660454505206,-0.7593648563552099,-1.1105310276534803,-0.6752180989543755,-2.7930183984601693,0.41193163864578636,backhand
1761072579359017472,12.328017473220823,0.1945104300975799,-0.1480762064456939,-0.2317448407411575,-0.2807425558567047,0.8945010900497437,-0.3479243814945221,-0.0068092942237854,0.1295467019081115,-0.5167911052703857,0.3107081885303614,-0.3644569559454594,0.4395553865720732,-0.7598832593033332,-1.107313967592177,-0.6789382675934563,-2.79514298542978,0.33684795018262725,backhand
1761072579369063424,12.338063478469849,0.188916727900505,-0.0647213906049728,-0.1738266795873642,-0.2829255163669586,0.893276572227478,-0.3492992520332336,0.0206269919872283,0.0936618447303772,-0.4731647074222564,0.3105219449430733,-0.3650204970436854,0.4383040209891877,-0.7604114720093555,-1.104582413876773,-0.6807969445753516,-2.7960082191403597,0.2647529093680428,backhand
1761072579379109376,12.348109483718872,0.2906546890735626,0.0247297920286655,-0.1231033056974411,-0.2843544483184814,0.8919894695281982,-0.3514220118522644,0.021872729063034,0.0418026447296142,-0.4542725682258606,0.3104225543754893,-0.3650450437621161,0.4370710648456302,-0.7611497386817311,-1.1017272042456516,-0.6802976568129654,-2.795250451736319,0.31661670007734594,backhand
1761072579389155328,12.358155488967896,0.2960982024669647,0.0846186950802803,-0.0425117872655391,-0.2849366366863251,0.8906973600387573,-0.3542167544364929,0.0292298197746276,0.0063822269439697,-0.4201515614986419,0.310514950006151,-0.3645685750332008,0.4358685350658127,-0.7620295345874377,-1.0988769335125774,-0.6774261688472764,-2.7926350346100364,0.31087251586103193,backhand
1761072579399201280,12.36820149421692,0.33328577876091,0.1316162943840026,0.0144696487113833,-0.2846612632274627,0.8895250558853149,-0.3573700189590454,0.0497521460056304,-0.0123581886291503,-0.377798467874527,0.3108090020232278,-0.3636832783055126,0.4347981814314158,-0.7629435886356584,-1.0963045643053015,-0.6726306189715461,-2.7884772847958597,0.3586246366404203,backhand
