time,seconds_elapsed,rotationRateX,rotationRateY,rotationRateZ,gravityX,gravityY,gravityZ,accelerationX,accelerationY,accelerationZ,quaternionW,quaternionX,quaternionY,quaternionZ,pitch,roll,yaw,omega_mag,label
1761072580313369600,13.28236961364746,0.0159993767738342,-0.2109729796648025,0.0901747122406959,-0.3303220868110657,0.8548228740692139,-0.400206595659256,0.0896909832954406,0.0624897480010986,0.003493309020996,0.3198867183207263,-0.3776857775132825,0.3965477922106598,-0.7731596981216481,-1.0252094008513395,-0.6900254741552282,-2.75613336483933,0.22999360194033353,backhand
1761072580323415552,13.292415618896484,0.0647340565919876,-0.2552476525306701,0.1339666694402694,-0.3302356600761413,0.8550871014595032,-0.3997132182121277,0.1062671542167663,0.0858003497123718,0.0066620707511901,0.3208709104623324,-0.3782988791611641,0.3962743368482522,-0.772592147910372,-1.0257187937964891,-0.6905026618181437,-2.753963541265743,0.2954470015522086,backhand
1761072580333461504,13.302461624145508,0.1121359318494796,-0.3012961149215698,0.1942244172096252,-0.3298661410808563,0.8553227782249451,-0.3995139896869659,0.1287857890129089,0.1116572022438049,0.0085838437080383,0.322249300558461,-0.3788947201168403,0.3958305149613947,-0.7719536784189702,-1.026173495815654,-0.6901977077200624,-2.750355135287422,0.3756021037201489,backhand
1761072580343507456,13.312507629394531,0.1392357051372528,-0.3465125560760498,0.2476476728916168,-0.3291932642459869,0.855575680732727,-0.3995272517204284,0.1444856524467468,0.1377867460250854,0.0223299860954284,0.3240161292448916,-0.3794853578051051,0.3952559078038154,-0.7712179728238117,-1.0266618501884597,-0.6891791164335878,-2.74537881837257,0.4480925161080676,backhand
1761072580353552384,13.32255244255066,0.1464049220085144,-0.3793922066688537,0.2922705411911011,-0.3282376825809479,0.8559178113937378,-0.399580717086792,0.1473447382450103,0.1526271104812622,0.0322101116180419,0.3260817097401392,-0.3800864763732508,0.3946440340805766,-0.7703642615996498,-1.0273231295714664,-0.6876871822223011,-2.7394232407893178,0.5007942860272274,backhand
1761072580363598336,13.332598447799684,0.1521275341510772,-0.4069766998291015,0.3427041471004486,-0.3269753754138946,0.8564196228981018,-0.3995405733585357,0.1480660438537597,0.1675367951393127,0.0447279214859008,0.3284011246823676,-0.3807053728930815,0.3940724983764626,-0.7693653871989762,-1.0282943191068932,-0.6858472500757985,-2.732699944157027,0.5533705388711253,backhand
1761072580373644288,13.342644453048706,0.2179076075553894,-0.4447126090526581,0.3752498626708984,-0.3255049288272857,0.8568991422653198,-0.3997128307819366,0.1544844508171081,0.1806221604347229,0.0574887096881866,0.3310034073809976,-0.3813094580422518,0.3933785430907849,-0.7683053783668508,-1.0292238619862717,-0.683428077489273,-2.724922641085015,0.6213416849974449,backhand
1761072580383690240,13.35269045829773,0.2754141390323639,-0.4959753751754761,0.4207004308700561,-0.3238703906536102,0.8572291135787964,-0.4003325700759887,0.1685664653778076,0.2096806168556213,0.0885039865970611,0.3339750247299189,-0.3818900445843458,0.3924203169998981,-0.7672202815985828,-1.0298643116858863,-0.6802067433086673,-2.7156896339739105,0.7062813697766941,backhand
1761072580393736448,13.362736463546751,0.3307985663414001,-0.5541965961456299,0.4691087007522583,-0.3221665620803833,0.8574343323707581,-0.4012666642665863,0.1906511187553405,0.2375820279121399,0.1303316354751587,0.3373025148816975,-0.382522735553749,0.3912071471113527,-0.7660680252373961,-1.0302629568632191,-0.676490932223384,-2.7052053113025583,0.7978875433257496,backhand
1761072580403781376,13.37278151512146,0.3796309530735016,-0.6181421875953674,0.5258911848068237,-0.3202811479568481,0.8575747609138489,-0.4024744629859924,0.2094717919826507,0.2298734784126281,0.1486291885375976,0.3410483112734503,-0.3831986138520848,0.3897712040104243,-0.7648028497144058,-1.0305358570527,-0.6721625222271058,-2.693273658519502,0.895980447819151,backhand
1761072580413827328,13.382827520370483,0.4089078903198242,-0.7036011815071106,0.5941474437713623,-0.318130224943161,0.8577536344528198,-0.4037966728210449,0.2263486385345459,0.2162361741065979,0.1655764877796173,0.3452537519015499,-0.3839490235907051,0.388181411437529,-0.7633466472097373,-1.0308837776715354,-0.6672868589634989,-2.679862645760125,1.0076068034327952,backhand
1761072580423873536,13.392873525619509,0.4166058897972107,-0.7863257527351379,0.6743585467338562,-0.3157104551792145,0.8580724596977234,-0.4050167202949524,0.2440094053745269,0.2228754162788391,0.1954830288887024,0.3499197090094103,-0.3848408078248245,0.3865089783239986,-0.7616196816694967,-1.0315042925198834,-0.6621152150597586,-2.66513318087552,1.1165250137731826,backhand
1761072580433919488,13.40291953086853,0.4330711662769317,-0.8685087561607361,0.7824549078941345,-0.3128327429294586,0.8586368560791016,-0.4060520529747009,0.2615785300731659,0.2581232786178589,0.2061772346496582,0.3551142402378205,-0.3858513790609391,0.3848281305322519,-0.7595523439627182,-1.032604363691924,-0.6564456150863702,-2.648832355651646,1.2466329762508086,backhand
1761072580443965440,13.412965536117554,0.53193598985672,-0.9463081955909728,0.8735209107398987,-0.3093755543231964,0.8592520952224731,-0.4073973298072815,0.2730596363544464,0.2930458784103393,0.208102285861969,0.3609601335286407,-0.3868318288019184,0.382965370563113,-0.7572360568280296,-1.0338058741863747,-0.649486945213709,-2.630137389583811,1.393374996132539,backhand
1761072580454010368,13.42301058769226,0.5812427997589111,-1.032810926437378,0.9497618675231934,-0.3055641949176788,0.8597579598426819,-0.4092026650905609,0.2756417095661163,0.3111862540245056,0.243385374546051,0.3674110329632756,-0.3878090976625274,0.3807922990554426,-0.7547254202994023,-1.0347955044871116,-0.6414054676399966,-2.609179227970972,1.5187459323537813,backhand
1761072580464056576,13.433056592941284,0.5997782945632935,-1.1130348443984983,1.050786018371582,-0.301374077796936,0.8603450059890747,-0.4110719561576843,0.275647759437561,0.3451756238937378,0.2854768633842468,0.3743927308737559,-0.3888622059152356,0.3784840851602257,-0.7519083206438856,-1.035946201992196,-0.6326243288823747,-2.586425876615898,1.6439987298899124,backhand
1761072580474102528,13.443102598190308,0.6140040755271912,-1.1931642293930054,1.1433122158050537,-0.2966720759868622,0.8611177802085876,-0.412870317697525,0.2644149959087372,0.3666959404945373,0.3086832761764526,0.3819005281292654,-0.3899768526727203,0.3761421194713454,-0.7487237187546641,-1.0374642046975622,-0.6230740272737981,-2.5618652910829125,1.7628966804314048,backhand
1761072580484148480,13.453148603439333,0.6312102675437927,-1.271151781082153,1.2433629035949707,-0.291468471288681,0.862049400806427,-0.4146288931369781,0.2420299351215362,0.3904226422309875,0.3270434141159057,0.3899215550389134,-0.3911447050041286,0.3737530886150119,-0.7451682539556509,-1.0392994363828467,-0.6127112867275006,-2.5354679926476495,1.886850434570041,backhand
1761072580494193408,13.46319341659546,0.6435891389846802,-1.360931396484375,1.3416234254837036,-0.2857744991779327,0.8631187677383423,-0.4163641631603241,0.2160875499248504,0.4057717323303222,0.3454412817955017,0.3984679405662311,-0.3923754275871573,0.3712942775697059,-0.7412189779230993,-1.0414132607372053,-0.6015108393549183,-2.5071460208977623,2.0165055570373664,backhand
1761072580504239360,13.473239421844482,0.6351088285446167,-1.4392725229263306,1.439180612564087,-0.2795917391777038,0.8643798828125,-0.4179424941539764,0.1964008212089538,0.408843994140625,0.3736004829406738,0.4074906850819387,-0.3936965589325956,0.3688248477081136,-0.7368328614623163,-1.043915858113857,-0.5895967615296663,-2.47706469734488,2.1321607479095896,backhand
1761072580514285312,13.483285427093506,0.6298784017562866,-1.5238713026046753,1.5330586433410645,-0.2729224264621734,0.8658400177955627,-0.4193261861801147,0.1827582418918609,0.4028672575950622,0.3908075392246246,0.4169522779287626,-0.3951109336408133,0.3663662935329615,-0.7319930834747281,-1.0468268494302548,-0.5769791900391671,-2.445281807315345,2.251488252650648,backhand
1761072580524331264,13.49333143234253,0.6311074495315552,-1.610548734664917,1.6436020135879517,-0.2657031416893005,0.8674860596656799,-0.4205589890480041,0.165620744228363,0.4029759764671325,0.3919182419776916,0.4268965099999867,-0.3966067757502412,0.3639005004283552,-0.7266629022825156,-1.050126345205797,-0.5634640504147533,-2.4115204528997904,2.386124770135744,backhand
1761072580534377216,13.503377437591553,0.649277925491333,-1.6971837282180786,1.7315901517868042,-0.2579789161682129,0.8692091703414917,-0.4218083918094635,0.1419510841369629,0.3953477144241333,0.4048101305961609,0.4373288926548642,-0.3981538359776606,0.3613437700752807,-0.7208659013321539,-1.053600608359181,-0.5489068074386627,-2.375613784844662,2.510059538262707,backhand
1761072580544422400,13.51342248916626,0.6545594930648804,-1.7783193588256836,1.803931474685669,-0.2499354779720306,0.8709489703178406,-0.4230605065822601,0.1081813126802444,0.3889082074165344,0.4306594133377075,0.4481424863200599,-0.3997869796333282,0.3586643579190726,-0.7146317765412648,-1.0571302605345194,-0.5336121603332136,-2.337948404594909,2.6163020921325497,backhand
1761072580554468352,13.523468494415283,0.6708777546882629,-1.8679776191711424,1.8801335096359253,-0.2415572553873062,0.8726721405982971,-0.4243741035461426,0.0765944868326187,0.3947533965110779,0.4434475898742676,0.4593279495694241,-0.4014782129754757,0.3558485480638118,-0.7079582519837372,-1.060648148601235,-0.5174707592621044,-2.2984421366495815,2.7339201454167887,backhand
1761072580564514304,13.533514499664308,0.717947781085968,-1.9667589664459229,1.9643113613128664,-0.2328730225563049,0.8743066787719727,-0.4258614778518677,0.0498286038637161,0.4109258651733398,0.4651070833206177,0.4709401646348859,-0.4032283448001096,0.3528117917740734,-0.7008181886206143,-1.0640055652038356,-0.5004047172486262,-2.2568488321924223,2.870907343096343,backhand
1761072580574560512,13.54356050491333,0.7757503390312195,-2.0672004222869873,2.058868885040283,-0.2238615453243255,0.8757064342498779,-0.4278133511543274,0.0197905004024505,0.4315903186798095,0.4798305630683899,0.4830502817027742,-0.404953462365449,0.3494367078376196,-0.6932309573394335,-1.0668969939442765,-0.4820892051155672,-2.2127619113886112,3.0189480386713465,backhand
1761072580584606464,13.553606510162354,0.7969140410423279,-2.1655075550079346,2.186790704727173,-0.2143003046512603,0.8769774436950684,-0.4301000237464905,-0.0134981721639633,0.4633393287658691,0.501434862613678,0.4956074414964384,-0.4065891951749256,0.3458832363322726,-0.6851447726266602,-1.0695356086300265,-0.4622521679221434,-2.166133110596909,3.1790798269134455,backhand
1761072580594651392,13.56365156173706,0.7964029908180237,-2.2474355697631836,2.297994613647461,-0.2040847092866897,0.8782281875610352,-0.4325097799301147,-0.0564438849687576,0.4725255966186523,0.5148919820785522,0.5085138499472596,-0.4081346886450285,0.342302766065106,-0.6765120839912119,-1.0721446799670038,-0.4408844645828055,-2.1171559093064327,3.3114956754272535,backhand
1761072580604697344,13.573697566986084,0.7640431523323059,-2.3102946281433105,2.385542154312134,-0.1933366060256958,0.8795004487037659,-0.4348562061786651,-0.1046675443649292,0.4425668120384216,0.5319478511810303,0.5218326043677436,-0.409755909885723,0.3386325241672586,-0.6671723066943681,-1.074811526229852,-0.4183533234745993,-2.065726861704249,3.4076435519951174,backhand
1761072580614743552,13.583743572235107,0.6894178986549377,-2.365490674972534,2.4545509815216064,-0.1821677982807159,0.8808863759040833,-0.4368686378002167,-0.136954516172409,0.4106175303459167,0.5438174605369568,0.5351408367422806,-0.4114079821719363,0.3351255802140682,-0.6573116971703501,-1.0777315450947176,-0.3950625719538996,-2.013182562362821,3.4778820700616757,backhand
1761072580624789504,13.59378957748413,0.6741753816604614,-2.4337313175201416,2.5181703567504883,-0.1706937849521637,0.8823166489601135,-0.4386127591133117,-0.1544710546731948,0.389350950717926,0.5335376262664795,0.5486553987590321,-0.4132339521597252,0.3315589233716032,-0.646748617326448,-1.0807618408597357,-0.3711331888611083,-1.958853529744374,3.5663346052680245,backhand
1761072580634835456,13.603835582733154,0.682795524597168,-2.524909257888794,2.5947797298431396,-0.1589860767126083,0.8835430145263672,-0.4405396282672882,-0.1630354225635528,0.3615894317626953,0.5107453465461731,0.5622379733410029,-0.4150072331513822,0.3278706740795705,-0.6357344221900629,-1.0833738990750743,-0.3463427075504461,-1.9030834269925747,3.6843260354354226,backhand
1761072580644880640,13.61388063430786,0.6544202566146851,-2.6041271686553955,2.664351224899292,-0.1469801664352417,0.884609043598175,-0.4425649642944336,-0.1723405122756958,0.3547860980033874,0.5113363265991211,0.5761091057438383,-0.4168598970036483,0.323952691813081,-0.6240038531593194,-1.0856549320041062,-0.3206489960762428,-1.845071211016817,3.7826593333816296,backhand
1761072580654926592,13.623926639556885,0.6805130839347839,-2.6780264377593994,2.694089889526367,-0.1349177211523056,0.8854544162750244,-0.4447107315063476,-0.1929478496313095,0.3338600993156433,0.5235223770141602,0.5899005075336852,-0.4186864644084077,0.3199160609084391,-0.6118600177248396,-1.0874709015704962,-0.2945576705328369,-1.7862235406285103,3.8591506826752595,backhand
1761072580664972544,13.633972644805908,0.64472895860672,-2.774021863937378,2.7557015419006348,-0.1229159906506538,0.8859743475914001,-0.4471478164196014,-0.2078945487737655,0.2915464639663696,0.5376477241516113,0.6038565011768565,-0.4205799656284009,0.3154973513806828,-0.5991087156217456,-1.088590841014212,-0.2682629568626228,-1.725897093348468,3.9629236328375352,backhand
1761072580675018240,13.644018411636353,0.6102319955825806,-2.8591768741607666,2.824768543243408,-0.1107304841279983,0.8864737749099731,-0.4493361413478851,-0.2129847109317779,0.2989509701728821,0.563151478767395,0.6177035672912303,-0.4225652518633476,0.3110796293877881,-0.5857562501417259,-1.0896690392497883,-0.2416170577697594,-1.6645931329675745,4.065291232994989,backhand
1761072580685064192,13.654064416885376,0.6295955181121826,-2.9334988594055176,2.835615873336792,-0.0986212342977523,0.8866366147994995,-0.4518288671970367,-0.2448235750198364,0.2767086625099182,0.5594795942306519,0.6317361319274842,-0.4246373178308008,0.3062167802088488,-0.5716850857340331,-1.090020955292106,-0.2149007320240796,-1.6016821174836544,4.128259131362759,backhand
1761072580695109376,13.664109468460085,0.6510707139968872,-3.012030839920044,2.8457694053649902,-0.0868560895323753,0.8863688707351685,-0.4547595977783203,-0.283444195985794,0.277800440788269,0.5655689239501953,0.6455808974175403,-0.4266199089981906,0.3010243537677541,-0.5573195547872167,-1.0894422925873783,-0.1887205839239357,-1.538865672989854,4.194594898648172,backhand
1761072580705155328,13.674155473709106,0.6399006843566895,-3.099650621414185,2.8631460666656494,-0.075449489057064,0.8857201933860779,-0.4580469727516174,-0.3169455230236053,0.3112554550170898,0.5710383653640747,0.6594017278100551,-0.4286352495558725,0.295378286389718,-0.5424138496537789,-1.0880431331767784,-0.1632540020544345,-1.4756155438878336,4.2678931874798,backhand
1761072580715201280,13.68420147895813,0.6305138468742371,-3.1496245861053467,2.8582379817962646,-0.0644289925694465,0.8848216533660889,-0.4614536464214325,-0.3610775768756866,0.3193256258964538,0.5531742572784424,0.6728846606599054,-0.430633377899249,0.2895307673266931,-0.5272125240305979,-1.086111157495514,-0.1387250045838352,-1.4130295092363023,4.299675232512592,backhand
1761072580725247488,13.694247484207152,0.6099497079849243,-3.188531398773194,2.838210105895996,-0.0538730062544345,0.8836042881011963,-0.4651247859001159,-0.4154568314552307,0.2814041972160339,0.5262668132781982,0.686199379666997,-0.4326512074636456,0.2832852555996424,-0.5115591169740266,-1.0835047838101786,-0.1153110268254959,-1.3506697898876463,4.312100153341014,backhand
1761072580735293440,13.704293489456177,0.5340171456336975,-3.22684907913208,2.8236351013183594,-0.0438072644174099,0.8823174238204956,-0.4686116874217987,-0.4683692455291748,0.2781745195388794,0.5332937240600586,0.6989942258946229,-0.4347301425222496,0.2769546107327507,-0.4956944214369622,-1.0807635445305486,-0.093212182351276,-1.289634688305798,4.3209541164797685,backhand
1761072580745338368,13.714338541030884,0.5220425128936768,-3.269493103027344,2.795105218887329,-0.0342641770839691,0.880950927734375,-0.4719654321670532,-0.517783522605896,0.2942809462547302,0.5263172388076782,0.711426215944912,-0.4369389126252781,0.2703732005415219,-0.4794324000530961,-1.0778680172631026,-0.072471766957916,-1.229340486748919,4.33298127398018,backhand
1761072580755384320,13.724384546279907,0.5238305926322937,-3.3216404914855957,2.770620822906494,-0.0253526791930198,0.8792858123779297,-0.4756191968917846,-0.5627973675727844,0.2807177901268005,0.5201748609542847,0.7234170309505437,-0.4390235867226103,0.2635311874980305,-0.4631170065228775,-1.0743606863993531,-0.0532541756191875,-1.1706046654528643,4.357067108592342,backhand
1761072580765430528,13.73443055152893,0.4957670867443084,-3.389274835586548,2.778111696243286,-0.0169859007000923,0.8774352669715881,-0.4793941378593445,-0.5925874710083008,0.2924407720565796,0.5349971652030945,0.7352077656499367,-0.4411790924922623,0.2562497592588014,-0.4462808119461488,-1.070489230973084,-0.0354172008221252,-1.1121237821994123,4.410314445959937,backhand
1761072580775476480,13.744476556777954,0.4989519417285919,-3.4589881896972656,2.778245687484741,-0.0090595744550228,0.8754057884216309,-0.483303964138031,-0.6239055395126343,0.3185487389564514,0.543148934841156,0.7466358998453622,-0.4432654572321002,0.2487242394610416,-0.4291699941992042,-1.0662746029346792,-0.0187428912752623,-1.0544365665775572,4.464549410259389,backhand
1761072580785522432,13.754522562026978,0.5148869752883911,-3.5017361640930176,2.7781951427459717,-0.0016563304234296,0.8730776906013489,-0.4875784814357757,-0.6709206104278564,0.3450009822845459,0.5283957123756409,0.7578356351258253,-0.4452411261236264,0.2407718938027385,-0.4116728566581346,-1.0614792462605918,-0.0033970410863732,-0.9972427246291315,4.49951475288345,backhand
1761072580795567616,13.764567613601685,0.5253862142562866,-3.5285091400146484,2.7827608585357666,0.0053899041377007,0.8704555630683899,-0.492217481136322,-0.7223546504974365,0.3715640306472778,0.4989466071128845,0.7686572916103535,-0.4469577244093252,0.2326371736179692,-0.3940491419222147,-1.0561270859590035,0.010949811598999,-0.94103918044317,4.524396691393912,backhand
1761072580805613568,13.774613618850708,0.4939966201782226,-3.541486978530884,2.775081157684326,0.0121017023921012,0.8676577806472778,-0.497014582157135,-0.7725387215614319,0.3669613599777221,0.4863792359828949,0.7791355941656509,-0.4485404389999067,0.2242859248457243,-0.3761049877182846,-1.050471538214902,0.0243439758196639,-0.8853491941778263,4.526283034851653,backhand
1761072580815659520,13.784659624099731,0.4159822762012481,-3.532054662704468,2.764060735702514,0.0184193104505538,0.8649571537971497,-0.5015075206756592,-0.8147144913673401,0.338305115699768,0.4834411740303039,0.7889928621767632,-0.4501135994093938,0.2159722194616826,-0.3581115628550698,-1.0450649452897505,0.0367113846699906,-0.8310140761965514,4.504273875454097,backhand
1761072580825705472,13.794705629348757,0.3174165487289428,-3.5154385566711426,2.7634150981903076,0.024572754278779,0.8625072836875916,-0.5054478049278259,-0.8409942984580994,0.2913776040077209,0.4711307287216186,0.79833545766178,-0.4518410751357776,0.2076433319432517,-0.3396828341649942,-1.0402035568917931,0.048577566462833,-0.776745425431918,4.482803198451079,backhand
1761072580835750400,13.804750442504885,0.2544349133968353,-3.5066986083984375,2.7546985149383545,0.0305470936000347,0.8603110313415527,-0.5088533759117126,-0.8501881957054138,0.2361702919006347,0.4528384208679199,0.8070152734449061,-0.4536379947621171,0.1994639543528766,-0.321174399505839,-1.0358794625087695,0.0599592703774453,-0.7233507345140799,4.466546335089603,backhand
1761072580845796352,13.814796447753906,0.2299604713916778,-3.497508764266968,2.749042272567749,0.0363473892211914,0.8581450581550598,-0.5121192336082458,-0.8549509048461914,0.1942384839057922,0.4190253615379333,0.8152190304546072,-0.4553758722333707,0.1912411670878981,-0.302452879665961,-1.031645645941335,0.0708556474031189,-0.670344380667068,4.45451263225186,backhand
1761072580855842304,13.82484245300293,0.2099148631095886,-3.484184741973877,2.7263293266296387,0.0419081933796405,0.8559438586235046,-0.5153676271438599,-0.859947144985199,0.1865060925483703,0.4077321290969848,0.822880492595301,-0.4569487255258067,0.1830684160908275,-0.283815938432627,-1.027373483201811,0.0811385579501521,-0.6184617854954948,4.429049464975381,backhand
1761072580865888256,13.834888458251951,0.2094780951738357,-3.4735372066497803,2.6962976455688477,0.0471320040524005,0.8536559343338013,-0.5187005996704102,-0.8636298179626465,0.199917733669281,0.4076776504516601,0.8301475490338472,-0.4583997530670086,0.174697948563324,-0.2649632129894136,-1.0229647471251768,0.090616685364669,-0.5670233126590023,4.402199767370641,backhand
1761072580875934464,13.844934463500977,0.2034505605697631,-3.479091167449951,2.6705822944641113,0.0519244000315666,0.8512453436851501,-0.522192656993866,-0.8600451350212097,0.1981167793273925,0.4143741130828857,0.8369427681638059,-0.4596389176155583,0.1662400128655757,-0.2462175681958296,-1.0183539082856612,0.0991095455388379,-0.5168683171163584,4.39061240301733,backhand
1761072580885979392,13.854979515075684,0.1857342571020126,-3.4901907444000244,2.654428720474243,0.0563114397227764,0.8487798571586609,-0.525739312171936,-0.8529117703437805,0.1925561428070068,0.4147621393203735,0.8433077593955461,-0.4607461463754919,0.157617720180856,-0.2273801467385093,-1.0136734330984254,0.1067022579179768,-0.4674505238851409,4.388840448072288,backhand
1761072580896025344,13.865025520324709,0.1658220738172531,-3.4986307621002197,2.655339241027832,0.0603986158967018,0.8463008999824524,-0.5292700529098511,-0.8584333062171936,0.1711704134941101,0.3992804288864136,0.8491906279495847,-0.4617053942276029,0.1489735437089767,-0.2085910834040786,-1.009002501370979,0.1136252972046576,-0.4189462473160934,4.395308937335495,backhand
1761072580906071552,13.87507152557373,0.1398405730724334,-3.494813919067383,2.6387195587158203,0.0642116591334343,0.8438291549682617,-0.5327562093734741,-0.8767421841621399,0.1352052688598632,0.3902849555015564,0.8546458178153717,-0.4625646510084609,0.140199292655867,-0.1896273538276863,-1.004379442541258,0.1199486896186975,-0.3707573427877445,4.38133776651992,backhand
1761072580916117504,13.885117530822754,0.0694430917501449,-3.4646308422088623,2.6218740940093994,0.0678030923008918,0.8415267467498779,-0.5359435677528381,-0.8999106287956238,0.0960190296173095,0.3853698968887329,0.8595350146489598,-0.4633901223249361,0.1315210863395068,-0.1707965460215747,-1.000103248477421,0.1258430816111472,-0.3234855829098131,4.345424372902412,backhand
1761072580926163456,13.895163536071776,0.0388383492827415,-3.4306418895721436,2.591679096221924,0.0712227970361709,0.8394203782081604,-0.538795530796051,-0.9073891639709472,0.0543479323387146,0.3707200288772583,0.8639057834407976,-0.4642355689822606,0.1228314168670844,-0.151869819658749,-0.99621580624862,0.1314269323927724,-0.2764838277297211,4.29972240146452,backhand
1761072580936208384,13.905208587646484,-0.005919003393501,-3.4065093994140625,2.559577226638794,0.0743709206581115,0.8374485373497009,-0.5414323210716248,-0.9057766199111938,0.021743357181549,0.352116584777832,0.8677437781883309,-0.4650129612226614,0.1142225173318969,-0.1331799820608745,-0.9925977466498286,0.1365053546419168,-0.2305805078666616,4.260959622200787,backhand
1761072580946254592,13.915254592895508,-0.0314328856766223,-3.362132787704468,2.5013813972473145,0.0771850869059562,0.8356640934944153,-0.5437904596328735,-0.9031128287315368,0.0200793147087097,0.357373833656311,0.8710679645618199,-0.4657846008240125,0.105591058326598,-0.1146118711529082,-0.9893407367242216,0.1409971807118931,-0.185505912730252,4.1906841688385805,backhand
1761072580956300544,13.925300598144531,-0.010700442828238,-3.3315465450286865,2.4285683631896973,0.0795362815260887,0.833846926689148,-0.5462355613708496,-0.909522831439972,0.0119324922561645,0.3489089012145996,0.8739560514756356,-0.4663376008234956,0.0970127575735981,-0.0965325221594623,-0.9860405281805508,0.1445918859691582,-0.1422355886022729,4.122773481026479,backhand
1761072580966346496,13.935346603393556,0.0005545080639421,-3.303762435913086,2.357590913772583,0.0813150554895401,0.8319414258003235,-0.5488728284835815,-0.9155130982398988,0.0059491991996765,0.331786036491394,0.8765001162777363,-0.4666633467149894,0.0882547455394641,-0.0786386298220422,-0.9825974758485267,0.1470793574541524,-0.1001613963026438,4.058704406227756,backhand
1761072580976392448,13.945392608642578,0.0192842539399862,-3.260344982147217,2.2825286388397217,0.082522228360176,0.8299943208694458,-0.5516334772109985,-0.9196652173995972,-0.0111771821975708,0.324781060218811,0.8786738435091375,-0.4667606640579264,0.0794841721142781,-0.0612295545349038,-0.979097526509846,0.1484949316065538,-0.0599195563568483,3.979969632068324,backhand
1761072580986437376,13.955437421798706,0.0316632576286792,-3.2191686630249023,2.2116432189941406,0.0832089558243751,0.8280081748962402,-0.5545076727867126,-0.9259061217308044,-0.0445151329040527,0.3040041923522949,0.8805178839094442,-0.4666487136373393,0.0706055420364564,-0.0440694781647589,-0.9755460213557556,0.1489478035657355,-0.020889019342834,3.9058181180141966,backhand
1761072580996483328,13.96548342704773,0.0310765653848648,-3.173701524734497,2.1531991958618164,0.0834875032305717,0.8260085582733154,-0.5574402213096619,-0.9289312362670898,-0.0735977292060852,0.2645936012268066,0.8820263099770882,-0.4663263556277545,0.061802969632303,-0.0273801695018522,-0.9719892116108478,0.1486644318631882,0.0165722532009873,3.8353114473375123,backhand
1761072581006529280,13.975529432296751,0.0063349329866468,-3.1432342529296875,2.0934512615203857,0.0833561047911644,0.8241552114486694,-0.5601964592933655,-0.93426251411438,-0.0961277484893798,0.2382665276527404,0.8831644725359429,-0.4659384151372157,0.0529448197123698,-0.0109047282131335,-0.9687089692431528,0.1477141703506396,0.0531298974062258,3.7765725048683616,backhand
1761072581016575232,13.985575437545776,0.0015180739574134,-3.1088430881500244,2.013563394546509,0.0827302709221839,0.8224560022354126,-0.5627803802490234,-0.9336671829223632,-0.1280133128166198,0.2273921966552734,0.8839480718517494,-0.4654714635853001,0.0441149874624091,0.0050911354236984,-0.96571530837049,0.1459573896001535,0.0881355292006302,3.703963444088559,backhand
1761072581026621440,13.9956214427948,-0.0115200970321893,-3.0991342067718506,1.9313626289367676,0.0813986957073211,0.8208956718444824,-0.5652472376823425,-0.9138571619987488,-0.1625400185585022,0.2262427806854248,0.8844172159387149,-0.4649116719145392,0.0351213957705701,0.0207294856386075,-0.962977650348311,0.1430222302338035,0.1216910899778751,3.6517019523329886,backhand
1761072581036666368,14.005666494369509,0.0156382862478494,-3.093009233474731,1.855100393295288,0.0793724358081817,0.8194469213485718,-0.5676326155662537,-0.8879508972167969,-0.1620677709579467,0.1906794905662536,0.884606067754005,-0.4642265995701992,0.0260261031611379,0.0358949039715203,-0.9604453856923648,0.1389298410409267,0.1535626795230509,3.6067087688862602,backhand
1761072581046712320,14.01571249961853,0.0781293287873268,-3.0676121711730957,1.7535661458969116,0.0765634626150131,0.8178741335868835,-0.5702804327011108,-0.8754068613052368,-0.1737244725227356,0.1620010733604431,0.8846214000943805,-0.4632305386243512,0.0166504334650277,0.0508437981084767,-0.957706684044512,0.1334577759061294,0.1841844532902146,3.5343093883787002,backhand
1761072581056758528,14.025758504867554,0.1321978867053985,-3.006399393081665,1.632581114768982,0.0729651674628257,0.816239595413208,-0.5730872750282288,-0.8811469078063965,-0.1958324909210205,0.128400444984436,0.8844813855213529,-0.4619564454418662,0.0072531060533298,0.0650869743105306,-0.9548716339664493,0.1266381275799345,0.2124918355592748,3.4236288771231482,backhand
1761072581066804480,14.035804510116575,0.1919986754655838,-2.942553997039795,1.5170859098434448,0.068618319928646,0.8145158886909485,-0.5760688185691833,-0.8902125358581543,-0.2321947813034057,0.0755195617675781,0.8842232687186473,-0.4603922299901468,-0.0021419926443358,0.0786354720861775,-0.9518942848423404,0.1185562004303594,0.2385614942124672,3.316178097557627,backhand
1761072581076850432,14.0458505153656,0.2717385292053222,-2.8629565238952637,1.4033492803573608,0.0636666417121887,0.812326967716217,-0.5797167420387268,-0.8937142491340637,-0.284464418888092,0.0089159607887268,0.8840263007572299,-0.4582708679193326,-0.0113770704832779,0.0914108952360674,-0.9481310987415248,0.1093853368518827,0.2622393731916039,3.1999611073650014,backhand
1761072581086895360,14.055895566940308,0.3210650086402893,-2.776923656463623,1.2789697647094729,0.0581043772399425,0.8098368048667908,-0.5837706327438354,-0.893553614616394,-0.3413310050964355,-0.041336178779602,0.883829143713141,-0.4557330288730798,-0.0205448188470318,0.1035920070038424,-0.9438739143219244,0.0992061471342331,0.2840177033860548,3.074109853704238,backhand
1761072581096941568,14.065941572189333,0.4504829347133636,-2.6662850379943848,1.1352241039276123,0.0518804900348186,0.8069530129432678,-0.5883325934410095,-0.8779150247573853,-0.4217296242713928,-0.0538182854652404,0.8837261113770977,-0.4527293708614853,-0.0294927078883317,0.1148671230993645,-0.9389747871463752,0.0879547334802807,0.3031542422523965,2.9327026007488266,backhand
1761072581106987520,14.075987577438354,0.3438531756401062,-2.597426176071167,0.9909894466400146,0.0448595359921455,0.8039715886116028,-0.5929732918739319,-0.8311754465103149,-0.4979870915412903,0.0199905037879943,0.8836182607758183,-0.4494901534734725,-0.0383660368019527,0.1253213187921394,-0.9339440380082196,0.0755080353790416,0.3198574239857419,2.8012350543803626,backhand
1761072581117033472,14.086033582687378,0.2075621932744979,-2.522737741470337,0.8342531323432922,0.0369902662932872,0.8020551800727844,-0.596103310585022,-0.7725096940994263,-0.4975508451461792,-0.0076563954353332,0.8831045025201542,-0.4468920241107666,-0.0472848422524949,0.1348258365581058,-0.930728339104118,0.0619739851161053,0.3341328545361057,2.6651953146327516,backhand
1761072581127079424,14.0960795879364,0.2136420458555221,-2.495518922805786,0.5918296575546265,0.0276811569929122,0.8005706071853638,-0.5985987782478333,-0.729661762714386,-0.5261107683181763,-0.0033909082412719,0.8824780376393861,-0.4444219220475513,-0.0564779188577286,0.1432897404188151,-0.9282467950943716,0.0462103356843198,0.3450701870410871,2.573620011073956,backhand
1761072581137124608,14.106124639511108,0.225476861000061,-2.4219155311584473,0.3690629005432129,0.0166896320879459,0.7991989850997925,-0.6008347272872925,-0.7210810780525208,-0.5423783659934998,-0.0696058869361877,0.8819099016502309,-0.4418528947504689,-0.0659443286489952,0.1505065889132661,-0.925961400040817,0.0277702667064656,0.3519253860234954,2.460228054362098,backhand
1761072581147170560,14.116170644760132,0.4761265218257904,-2.3213958740234375,0.1536510735750198,0.0044202012941241,0.7971404194831848,-0.6037778854370117,-0.7421521544456482,-0.5266478657722473,-0.1809206008911132,0.8816689791351824,-0.4386557491067551,-0.0754465479752767,0.1566809092276373,-0.9225442487118214,0.0073207753273324,0.3553855490195526,2.3746965955948394,backhand
1761072581157216256,14.126216411590576,0.7323971390724182,-2.1599924564361572,-0.0190541334450244,-0.0087396306917071,0.7934342622756958,-0.608593225479126,-0.7686346173286438,-0.5382615923881531,-0.2560155391693115,0.8821254285206536,-0.4342273565736349,-0.0845576395464603,0.1617139679726682,-0.9164308413085104,-0.0143593938299391,0.3555372408291579,2.2808630035983986,backhand
1761072581167262208,14.1362624168396,0.9072957634925842,-1.9658230543136597,-0.1565446108579635,-0.0221332684159278,0.7883691787719727,-0.614804208278656,-0.7701946496963501,-0.5401391983032227,-0.3269224762916565,0.8831077929871273,-0.4288711815560175,-0.0930988765376874,0.165899954481439,-0.9081535830984224,-0.0359849733131089,0.3538245004945817,2.1707492021215504,backhand
1761072581177307392,14.146307468414308,0.9930559992790222,-1.7463210821151731,-0.2570486068725586,-0.0353377163410186,0.7823724150657654,-0.6218075752258301,-0.7490403652191162,-0.5738152861595154,-0.4270968437194824,0.8844864858288173,-0.4229989609377375,-0.1008369038223406,0.169078478487948,-0.8984659852610978,-0.0567695636418258,0.3503879376099432,2.0253077607709624,backhand
1761072581187353344,14.15635347366333,0.7692622542381287,-1.545579433441162,-0.3467333614826202,-0.0479639694094657,0.7764806151390076,-0.6283131241798401,-0.7088261842727661,-0.6548985242843628,-0.4584941267967224,0.885872121999634,-0.4173891065784556,-0.1078414183078244,0.1714269036519937,-0.8890613186583192,-0.0761899144069824,0.3459939284711693,1.7609100558622715,backhand
1761072581197399296,14.166399478912354,0.582374632358551,-1.3940109014511108,-0.4523732364177704,-0.0604029633104801,0.7722516059875488,-0.6324389576911926,-0.6523808836936951,-0.7617993354797363,-0.4081189036369324,0.8867764274058828,-0.4131113096294128,-0.1145406989979219,0.1727633889560082,-0.8823776498429413,-0.0952191545055822,0.3398312140924963,1.5770441182181252,backhand
1761072581207445504,14.176445484161375,0.7990893125534058,-1.381983757019043,-0.6702332496643066,-0.0734785348176956,0.7674318552017212,-0.6369060277938843,-0.5581590533256531,-0.9347597360610962,-0.1227985620498657,0.8879324546233746,-0.4085112998699999,-0.1211012033123938,0.173288770061177,-0.8748258166606866,-0.1148601475801091,0.3317170360983295,1.7313680842204295,backhand
1761072581217491456,14.1864914894104,0.4048215746879577,-1.4152367115020752,-0.8607507348060608,-0.0884036868810653,0.7627044916152954,-0.6406766772270203,-0.4729061126708984,-0.9290710687637328,0.00337815284729,0.889081453099918,-0.4039961331232334,-0.12825278565487,0.1728366273091463,-0.8674845567126024,-0.1371190004183507,0.3204225686609077,1.7051883427895054,backhand
1761072581227536384,14.196536540985107,0.3383898437023163,-1.2666600942611694,-1.098627686500549,-0.1045587137341499,0.7597743272781372,-0.6417246460914612,-0.4811804294586181,-0.6583796739578247,-0.2255086302757263,0.8897031742553808,-0.4008460592787539,-0.1358680028255862,0.1711450902079283,-0.8629659226293953,-0.1615146394104262,0.3055896498553289,1.7105315765165348,backhand
1761072581237582336,14.20658254623413,1.0468153953552246,-1.014006495475769,-1.452082633972168,-0.1215973421931266,0.7540772557258606,-0.6454313397407532,-0.5930480360984802,-0.5537903904914856,-0.3154298067092895,0.891366767559624,-0.3960946275512733,-0.1428053271283428,0.1678721386216506,-0.8542480311426892,-0.1862143561818067,0.287352465008928,2.057322439653861,backhand
1761072581247628544,14.216628551483154,1.7221122980117798,-0.7876112461090088,-1.6549625396728516,-0.139273539185524,0.7428073883056641,-0.6548588871955872,-0.6909419298171997,-0.5977878570556641,-0.3970210552215576,0.8948294323288364,-0.387902698081134,-0.1486676339564836,0.1634311980023312,-0.8372538497834798,-0.2095549225963261,0.267785794609706,2.514936032920363,backhand
1761072581257674496,14.226674556732178,1.926230192184448,-0.5604659914970398,-1.720072865486145,-0.156228557229042,0.7280208468437195,-0.6675165891647339,-0.7242188453674316,-0.5752498507499695,-0.5072575807571411,0.8993011552768376,-0.3778074364887906,-0.1533077066521062,0.1581639583725504,-0.8154305556925374,-0.2299062352304641,0.2485300920051965,2.642562306453608,backhand
1761072581267720448,14.2367205619812,1.891532301902771,-0.3766529262065887,-1.7886394262313845,-0.172039657831192,0.7121257781982422,-0.6806461811065674,-0.7081635594367981,-0.5869121551513672,-0.5201137065887451,0.903931011569296,-0.367412479764292,-0.1571145579025717,0.1524196841368873,-0.7925215188999191,-0.2475739668996524,0.2300731600375517,2.6303978545138222,backhand
1761072581277765632,14.246765613555908,1.62714946269989,-0.2251622080802917,-1.879678726196289,-0.1870970726013183,0.6965974569320679,-0.6926373839378357,-0.6404175758361816,-0.6671327948570251,-0.4581193923950195,0.9083403698799374,-0.3577154579439369,-0.1603775099705504,0.1457270939293146,-0.7706440710419721,-0.2638261637645638,0.2106249437439983,2.496298361099297,backhand
1761072581287811584,14.256811618804932,1.1146268844604492,-0.2657987773418426,-2.0051331520080566,-0.2020998001098632,0.683010458946228,-0.7018919587135315,-0.5434751510620117,-0.7276729941368103,-0.262661874294281,0.9120478502599628,-0.3496090452962345,-0.1637911339161317,0.1382557173009178,-0.7518763692959094,-0.2803522801378918,0.1896121283958536,2.3094590359822775,backhand
1761072581297857536,14.266857624053957,0.6956637501716614,-0.2759611308574676,-2.2481138706207275,-0.2185911685228347,0.6724819540977478,-0.7070968151092529,-0.4836946129798889,-0.7593960165977478,-0.0671188831329345,0.9147463838165086,-0.3437580877455111,-0.1681724171475064,0.1295664845349319,-0.7375571763800016,-0.2998199148461127,0.1648004559172087,2.3694131286722335,backhand
1761072581307903488,14.27690362930298,0.8387208580970764,-0.3340679109096527,-2.629389524459839,-0.2370308488607406,0.6614761352539062,-0.7115235328674316,-0.4866630434989929,-0.8383408188819885,0.3254761695861816,0.917343752223117,-0.3380106998001901,-0.1731675159324975,0.1193415358156424,-0.7227853611466959,-0.3215688123413974,0.1362801980898523,2.78006174720019,backhand
1761072581317949440,14.286949634552002,0.7095351219177246,-0.2775878310203552,-2.7703440189361572,-0.2572697401046753,0.6490551829338074,-0.715918779373169,-0.5986262559890747,-0.7126385569572449,0.1550819873809814,0.9199581633262754,-0.33180557937076,-0.1787335412010775,0.1078719518377488,-0.7063417979162673,-0.3449853856776941,0.1051779767170217,2.8732039740367763,backhand
1761072581327994368,14.29699444770813,0.7278977036476135,-0.0840032771229744,-2.837395429611206,-0.2766288220882416,0.6366022825241089,-0.7198708057403564,-0.7871986627578735,-0.2897852659225464,0.0670845508575439,0.922366917910373,-0.3260036458292035,-0.1838102626304668,0.0957844831795298,-0.6900844323679923,-0.366877848071523,0.0737855745463771,2.9304785345607685,backhand
1761072581338040320,14.307040452957152,1.519187092781067,0.0477041527628898,-3.1560513973236084,-0.2954734563827514,0.6201938986778259,-0.7266739010810852,-0.936597466468811,-0.0534214973449707,0.1630905270576477,0.925460641363713,-0.318237904081526,-0.1881161328216965,0.0828228051655263,-0.668989886180792,-0.3861922966128928,0.0428037982171571,3.5029795220086166,backhand
1761072581348086272,14.317086458206177,2.3020105361938477,-0.030499305576086,-3.519838809967041,-0.3158392310142517,0.5955488681793213,-0.7386252284049988,-0.9616265892982484,-0.1147596836090087,0.128883957862854,0.9298072391882148,-0.3059481804790551,-0.1925697455921251,0.0690741850823399,-0.6379487193058244,-0.404074362705948,0.0132188281041363,4.205882542884228,backhand
1761072581358132480,14.3271324634552,2.258157253265381,-0.1429853737354278,-3.7211155891418457,-0.3376565873622894,0.566208004951477,-0.7519285082817078,-0.9080251455307008,-0.220504879951477,0.1066039204597473,0.9343534406465196,-0.2915104896994726,-0.1976293672548403,0.0542944029907922,-0.6018980639005719,-0.4220670264517629,-0.0166966032852254,4.355045375806292,backhand
1761072581368178432,14.337178468704224,1.6002936363220217,-0.3021460771560669,-3.872840642929077,-0.3603690266609192,0.5380350351333618,-0.7620055675506592,-0.8709084391593933,-0.3148905038833618,0.2714507579803467,0.9378254591846406,-0.278484314128412,-0.2035772982064384,0.0385496081642448,-0.5681042066591119,-0.4417513379495184,-0.0487551840613527,4.201324388798949,backhand
1761072581378223360,14.34722352027893,0.8967544436454773,-0.4960854351520538,-4.107624530792236,-0.3846268951892853,0.5136619806289673,-0.7669507265090942,-0.9141401052474976,-0.434652030467987,0.4350568652153015,0.9396908815893668,-0.2685234045566331,-0.210760061295582,0.0213607331162351,-0.5394474291288034,-0.4648480329465368,-0.0852356577636638,4.23353854088209,backhand
1761072581388269312,14.357269525527954,0.3778855800628662,-0.3816660344600677,-4.44353723526001,-0.4097555577754974,0.4916152358055115,-0.768384575843811,-1.0520058870315552,-0.5739822387695312,0.631085991859436,0.940312226857227,-0.2608773698132257,-0.2185193442306525,0.0022946841145806,-0.5139436340851633,-0.4899071158795981,-0.1263076531637426,4.475878643866709,backhand
1761072581398315520,14.367315530776978,-0.4915081560611725,-0.1543522179126739,-4.375477313995361,-0.4333073496818542,0.473075807094574,-0.7671010494232178,-1.335277795791626,-0.558311402797699,0.5147969722747803,0.9397944310611698,-0.2560963524385775,-0.2255307720674874,-0.0183568256743626,-0.4927786853581672,-0.514183036552027,-0.1711116466631683,4.405701601327225,backhand
1761072581408361472,14.377361536026,-1.1671712398529053,0.1673560887575149,-4.590798854827881,-0.4540702104568481,0.4600451290607452,-0.7630063891410828,-1.583649516105652,-0.3291857838630676,0.5303098559379578,0.9380129782262686,-0.2551821028990533,-0.2310387579411179,-0.0404328763133856,-0.4780460209614312,-0.5368137118432564,-0.2200022276879484,4.739802832299353,backhand
1761072581418407424,14.387407541275024,-1.0668965578079224,0.4813819229602813,-5.3334856033325195,-0.4741784632205963,0.445661723613739,-0.75930255651474,-1.777896761894226,-0.1999647319316864,0.5215554237365723,0.935603993132251,-0.2546713912640136,-0.2355656810592997,-0.0655473477583285,-0.4619133216650161,-0.5582339877101431,-0.2744744725079829,5.460408913421282,backhand
1761072581428452608,14.397452592849731,-0.7933018803596497,0.8374433517456055,-5.986721038818359,-0.4939548969268799,0.425320416688919,-0.7583608627319336,-1.92999529838562,-0.1477325558662414,0.2815847396850586,0.932911607203236,-0.2520938291581134,-0.239307916870153,-0.094109078121347,-0.4393158988189282,-0.5773204896405807,-0.3334757267482962,6.096840824344641,backhand
1761072581438498560,14.407498598098757,-0.1527362465858459,0.9219872951507568,-6.691601276397705,-0.5132302045822144,0.3972098529338836,-0.7608016133308411,-1.9329519271850584,-0.2104575634002685,0.238584816455841,0.9298845248663364,-0.246307663891946,-0.2427585689945094,-0.1253622392087734,-0.4084745626826513,-0.5934689104658185,-0.3945068404552941,6.756546201701571,backhand
1761072581448544512,14.417544603347778,0.4511400163173675,0.6748086810112,-7.670506000518799,-0.5343198180198669,0.3579941689968109,-0.7657300233840942,-1.9382143020629885,-0.5497056245803833,0.1725751757621765,0.9259828260990224,-0.2359861661955456,-0.2478820487018048,-0.1594389680401238,-0.3661187888434793,-0.6092421316597966,-0.4573054245513208,7.713336267419295,backhand
1761072581458589184,14.427589178085327,0.3654269874095917,0.4080219864845276,-8.644835472106934,-0.5575518012046814,0.3098032176494598,-0.7701675295829773,-2.0733838081359863,-0.9839518070220948,0.2211562395095825,0.9198289353565388,-0.2231831522445351,-0.255157849540806,-0.1974805409594257,-0.3149860654969574,-0.6266102694746604,-0.5257741828025476,8.662170580424997,backhand
1761072581468635136,14.43763518333435,-0.3489558696746826,0.1004473865032196,-9.234285354614258,-0.5811308026313782,0.2579552233219147,-0.7718459367752075,-2.378753900527954,-1.3852897882461548,0.467387318611145,0.9104591630912516,-0.2108451467674783,-0.2638586114259593,-0.2387198396805193,-0.260905198181467,-0.6453611675470515,-0.6005302273997044,9.241422287011838,backhand
1761072581478680064,14.447680234909058,-1.8724522590637207,-0.1185118481516838,-9.714035034179688,-0.6035111546516418,0.2099816352128982,-0.7692086696624756,-2.877415180206299,-1.5414025783538818,0.6433237195014954,0.89693294540101,-0.203006831832297,-0.272367191002999,-0.2830469358662033,-0.2115561744446647,-0.665271864617773,-0.6846900345291759,9.893563522103426,backhand
1761072581488726016,14.45772624015808,-3.0901429653167725,-0.0945817828178405,-10.28293800354004,-0.6233919858932495,0.1675795018672943,-0.7637404799461365,-3.619710922241211,-1.289314031600952,0.723869264125824,0.8788066355294782,-0.2004945166270478,-0.2791625248393055,-0.3310120513281184,-0.1683739370118803,-0.6845624392471634,-0.7805684314271043,10.737632106027185,backhand
1761072581498772224,14.467772245407104,-4.548032283782959,0.1743239760398864,-10.840943336486816,-0.6389809846878052,0.1295314133167266,-0.7582380175590515,-4.450267791748047,-0.7843775749206543,0.853834331035614,0.8561678491383521,-0.2019833646170748,-0.282990654738406,-0.3822244796919709,-0.129896398033121,-0.700251379742804,-0.8872651669505913,11.757594946581222,backhand
1761072581508818176,14.477818250656128,-5.75258731842041,0.7205780148506165,-11.673139572143556,-0.6486188769340515,0.0961509346961975,-0.7550155520439148,-5.102846145629883,0.1005043536424636,1.1068527698516846,0.8282520211009495,-0.2071105103043544,-0.2821301965023997,-0.4376143817571833,-0.0962997068321537,-0.7097419892981945,-1.0078615555223849,13.03355979777901,backhand
1761072581518864128,14.487864255905151,-6.257326126098633,1.2148237228393557,-12.004993438720703,-0.6508553624153137,0.0640194341540336,-0.7564978003501892,-5.45284366607666,0.9099490642547609,1.134152889251709,0.7955609250089708,-0.2125288032268628,-0.2767356221382949,-0.4953098987699277,-0.0640632479329356,-0.7104740273412219,-1.137504759782982,13.592269655567348,backhand
1761072581528909056,14.49790906906128,-7.007189750671387,1.7637174129486084,-12.054245948791504,-0.6456784605979919,0.0363494493067264,-0.7627437114715576,-5.423459053039551,1.5704010725021362,0.8961208462715149,0.7588040229886481,-0.2181334776399603,-0.2665444129239525,-0.5528003180438347,-0.03635745769986,-0.7024707613062111,-1.272540578778622,14.054047556081795,backhand
1761072581538955008,14.507955074310305,-7.515012264251709,2.6803760528564453,-11.92214012145996,-0.6317704319953918,0.0150504792109131,-0.7750093936920166,-5.362003803253174,2.2340798377990723,0.8848574161529541,0.7186963039337227,-0.222881326739863,-0.2506376016762557,-0.6090815797272625,-0.015051047007433,-0.6839274139844495,-1.4114173781804151,14.345635231397221,backhand
1761072581549000960,14.518001079559326,-8.07852554321289,3.970855712890625,-11.29409408569336,-0.606745719909668,0.0044273319654166,-0.794883668422699,-5.398228645324707,2.726621150970459,0.8208693861961365,0.6768091324844944,-0.2257407362145931,-0.2271547562134323,-0.6628508615634912,-0.004427346422664,-0.6519676567489622,-1.5514552213135877,14.442535485898345,backhand
1761072581559046912,14.52804708480835,-8.053089141845703,5.349081516265869,-10.823845863342283,-0.5692833662033081,0.0047420100308954,-0.8221276998519897,-5.221014976501465,3.4048192501068115,0.7283624410629272,0.6345251647746044,-0.2244282693149446,-0.1963876080533771,-0.7130509961609713,-0.0047420277942007,-0.6056416973740093,-1.688690095282866,14.512772204770602,backhand
1761072581569092096,14.538092136383057,-7.803133487701416,6.559964656829834,-10.504508018493652,-0.5198774337768555,0.0132062574848532,-0.8541387915611267,-4.8031206130981445,4.074424743652344,0.5217718482017517,0.5917266167449511,-0.2171853415393186,-0.1605027617655597,-0.7595583868523508,-0.0132066409908303,-0.546760517391447,-1.821637088034821,14.637852207080835,backhand
1761072581579138048,14.54813814163208,-7.646657943725586,7.742101669311523,-10.047578811645508,-0.4592293798923492,0.0299391280859708,-0.8878130912780762,-4.189101219177246,4.416487216949463,0.2092242240905761,0.5482221162380716,-0.2038123598123283,-0.1206399216837883,-0.8020966673689123,-0.0299436026234145,-0.4773593535784655,-1.9497654335847907,14.810987676131719,backhand
1761072581589184000,14.558184146881104,-7.533269882202148,8.809346199035645,-9.06157398223877,-0.3881087899208069,0.0582240410149097,-0.9197725653648376,-3.613020420074463,4.54396390914917,-0.1112027764320373,0.5055590279147831,-0.1849936643804765,-0.0767533127931872,-0.8392236745826566,-0.058256987117408,-0.3992943668287295,-2.0690003978521476,14.712812736120322,backhand
1761072581599229952,14.568230152130129,-7.635832786560059,9.83999729156494,-7.649916648864746,-0.3072260618209839,0.0998877584934234,-0.9463797211647034,-3.076333999633789,4.578289031982422,-0.1465157866477966,0.4654947610980925,-0.1611782327760839,-0.0288394241622286,-0.8697727318571038,-0.1000546127816058,-0.3138999000318015,-2.1746340473177894,14.616864019921952,backhand
1761072581609276160,14.57827615737915,-7.276281833648682,10.539443969726562,-6.577618598937988,-0.2178569436073303,0.1532870084047317,-0.963867962360382,-2.5728535652160645,4.592989921569824,-0.0204917788505554,0.4292696661226915,-0.1325820424445654,0.0220911860717584,-0.8931190302502449,-0.15389374823639,-0.2222885366082911,-2.262719740324328,14.397542253689911,backhand
1761072581619321088,14.588321208953856,-6.308481693267822,10.920880317687988,-6.484760284423828,-0.1251620352268219,0.2085234969854354,-0.969975471496582,-2.0909481048583984,4.07850980758667,0.0416460037231445,0.3932651117885894,-0.0995219236102203,0.0714678363667171,-0.9112245936789388,-0.2100650303896308,-0.1283271930112269,-2.340280073829967,14.18149089954934,backhand
1761072581629367040,14.59836721420288,-5.875088214874268,10.937777519226074,-6.456066131591797,-0.0341469049453735,0.261755496263504,-0.9645299911499025,-1.7595847845077517,2.813119411468506,0.4283361434936523,0.3558956980493125,-0.0634976978432466,0.1170600650962406,-0.9249882642424364,-0.2648406608927287,-0.0353878566513688,-2.41171246248048,13.994014023436181,backhand
1761072581639412992,14.608413219451904,-6.67633056640625,11.022942543029783,-5.504920959472656,0.053670234978199,0.3222645819187164,-0.945127010345459,-1.6481069326400757,1.5709697008132937,1.176419734954834,0.3185749019889553,-0.0270287025195927,0.1634195418593827,-0.9333132482898496,-0.3281207206653957,0.0567253480786162,-2.4743254517972955,14.013665006303942,backhand
1761072581649459200,14.618459224700928,-7.206843852996826,11.16661262512207,-3.981316328048706,0.1403541564941406,0.3919576704502105,-0.9092139005661012,-1.623615264892578,0.6874643564224243,1.9788702726364136,0.2861543573209236,0.009929703249722,0.212824959207848,-0.934196201542729,-0.4027585837328268,0.1531597491914095,-2.5157941061234137,13.87381402300755,backhand
1761072581659505152,14.628505229949951,-7.277569770812988,10.927708625793455,-2.486570358276367,0.224918782711029,0.4623062312602997,-0.8577204942703247,-1.5848888158798218,0.3363387584686279,2.36708927154541,0.2589705558633756,0.0479484880705442,0.2623751092133231,-0.9283287839649066,-0.4805943043935599,0.25645433924563,-2.534331397169807,13.36266701395909,backhand
1761072581669549824,14.63855004310608,-7.233738899230957,10.471346855163574,-1.277081847190857,0.3045894801616668,0.5276127457618713,-0.7930006384849548,-1.4149105548858645,0.7928523421287537,2.5076918601989746,0.2379305394635724,0.0856705194975424,0.3100971319000062,-0.9164548023961248,-0.5557878676349861,0.3667225010792638,-2.527860541488928,12.79089603850393,backhand
1761072581679596032,14.648596048355104,-6.4283318519592285,10.008660316467283,-0.3389481604099273,0.3780631124973297,0.5826404094696045,-0.7194430828094482,-1.1446495056152344,1.5080578327178955,2.0528934001922607,0.2206283170849556,0.1232545574271463,0.353676074737957,-0.9005801288500083,-0.6219737234580938,0.4838342865890596,-2.502799694156841,11.900067965553212,backhand
1761072581689641984,14.658642053604126,-5.494143009185791,9.539883613586426,0.4014874100685119,0.4452536106109619,0.6230729818344116,-0.6430623531341553,-0.7623922824859619,1.7950024604797363,1.5382649898529053,0.2072182914825547,0.1605356485697841,0.3907647840551719,-0.8823784076808584,-0.6726653913676852,0.6056041294410593,-2.462686714633627,11.01617805350855,backhand
1761072581699687936,14.66868805885315,-5.0624284744262695,9.27658748626709,1.4362030029296875,0.5078532695770264,0.6507331132888794,-0.5644744634628296,-0.2886150479316711,1.625145673751831,1.0735840797424316,0.1967767668151763,0.1980597433060877,0.4225341440550388,-0.8622738020887849,-0.7085495687100105,0.7326450040371881,-2.4109447461023534,10.665174003019047,backhand
1761072581709733888,14.678734064102173,-4.685993194580078,9.443913459777832,2.6707544326782227,0.5708081126213074,0.6650355458259583,-0.4815658926963806,0.0277178287506103,1.115390419960022,0.392607182264328,0.1909430307503326,0.2376276993250791,0.4502778418038461,-0.8392398837059921,-0.7275414072792388,0.8699966357198815,-2.3439705753108804,10.875613219266953,backhand
1761072581719779072,14.68877911567688,-4.5952630043029785,9.259034156799316,3.504401206970215,0.6330207586288452,0.6664237380027771,-0.393908679485321,-0.0625099539756774,0.7334327697753906,0.2061187922954559,0.1882216366562637,0.2793782059315823,0.4743347805545866,-0.8133430330792025,-0.729401772509709,1.0141638966480826,-2.268775708689949,10.914530838057418,backhand
1761072581729825024,14.698825120925903,-4.682454586029053,8.97385311126709,4.148680210113525,0.6903079748153687,0.6572502851486206,-0.3024846017360687,-0.3810733556747436,0.8058692216873169,0.1519414186477661,0.1883343151547276,0.3208559950330952,0.4957914122361654,-0.7847117078555984,-0.7171644795105722,1.1578086386043274,-2.1900334610414913,10.939239831844356,backhand
1761072581739870976,14.708871126174929,-4.423134803771973,8.728370666503906,4.937315464019775,0.7426380515098572,0.6363513469696045,-0.208675742149353,-0.6547932028770447,1.039597749710083,-0.201556771993637,0.1913278268316338,0.3622236356024607,0.5142530150944361,-0.7534795455301897,-0.6897590527602591,1.29686747430105,-2.112717980940209,10.960185216294184,backhand
1761072581749916928,14.71891713142395,-3.448194980621338,8.259732246398926,5.496872425079346,0.7891603708267212,0.6026439666748047,-0.1185163930058479,-0.836340606212616,1.147050857543945,-0.4886918663978576,0.1969831918215125,0.40286426499477,0.5276762153044893,-0.721426233981255,-0.6468101609610574,1.4217299923778546,-2.046571660706816,10.503753227498356,backhand
1761072581759963136,14.728963136672974,-2.4700989723205566,7.968868255615234,6.3263092041015625,0.8299790620803833,0.5566917657852173,-0.0350586734712123,-1.0108567476272583,1.1931403875350952,-0.7360289692878723,0.2031925292092364,0.444086329213085,0.5340954924102601,-0.6901030349109152,-0.5903981184751625,1.5285809908402814,-2.00160053864094,10.470264483493786,backhand
1761072581770008064,14.73900818824768,-1.8221557140350344,7.536040782928467,7.067272186279297,0.8652788996696472,0.4995025396347046,0.0423011817038059,-1.1887500286102295,1.3413329124450684,-0.7819099426269531,0.2106767103537528,0.4856494404527476,0.5341303321000797,-0.6591393006613446,-0.5230244466741366,1.619644772874418,-1.974913225779151,10.490876907251776,backhand
1761072581780054016,14.749054193496704,-1.7181915044784546,7.051086902618408,7.520620346069336,0.8938361406326294,0.4334196150302887,0.1149093136191368,-1.344519853591919,1.4691529273986816,-0.6237746477127075,0.2198381808855688,0.5264180992350667,0.5294701504523768,-0.6278665568192716,-0.4482838654381761,1.698652510483749,-1.9608467986242315,10.451303217496411,backhand
1761072581790100224,14.759100198745728,-1.8203872442245483,6.73228645324707,7.930757522583008,0.9142451286315918,0.3607357740402221,0.1844607293605804,-1.5519098043441772,1.343655705451965,-0.6680575609207153,0.2308716030981472,0.5653098256485661,0.522163929153474,-0.5953721739902831,-0.3690566669171622,1.7698863937977471,-1.9532691346434248,10.560985062460624,backhand
1761072581800146176,14.769146203994753,-2.045954465866089,6.421318054199219,8.553512573242188,0.9263515472412108,0.2802501916885376,0.2516604661941528,-1.790258288383484,1.2708362340927124,-0.8298770189285278,0.2439153854975918,0.6030523146079273,0.5120138135221622,-0.5609591616882811,-0.2840547478960312,1.8360625847364644,-1.9515120158893964,10.889528574286144,backhand
1761072581810191104,14.779191255569458,-1.7516905069351196,6.014052867889404,8.930863380432129,0.9295194149017334,0.1928280591964721,0.3143420815467834,-2.007964849472046,1.314541935920715,-0.6612658500671387,0.2587507838592383,0.6392784281545472,0.4984918502306177,-0.5252399329589434,-0.1940434886275667,1.8968998034055604,-1.9564528261750216,10.908600838320146,backhand
1761072581820237056,14.78923726081848,-0.8770745992660522,5.8035736083984375,8.89815902709961,0.9225573539733888,0.1051147803664207,0.3712664246559143,-2.311427593231201,1.2952300310134888,-0.6070451736450195,0.2718591275746568,0.6740771071654188,0.4808879970255467,-0.4903665813901793,-0.1053093174582454,1.953397330070584,-1.9734373007684032,10.659641670916093,backhand
1761072581830283264,14.799283266067505,0.2832748889923095,5.614426136016846,8.5516357421875,0.905318558216095,0.0234786160290241,0.4240835607051849,-2.640075206756592,1.2765854597091677,-0.5693778395652771,0.2807810382270211,0.7074061403882407,0.4600199346466243,-0.4572965704823395,-0.0234807734571616,2.008875215669419,-2.003363390772234,10.233889747626824,backhand
1761072581840329216,14.809329271316528,1.957665205001831,5.09947395324707,8.025591850280762,0.8801152110099792,-0.0459093004465103,0.4725350141525268,-2.787036657333374,0.9170488119125366,-0.5313729643821716,0.2835513385880521,0.7391168009102149,0.4358599100038124,-0.4281717683161908,0.0459254419427039,2.0635273731756576,-2.0484921984066355,9.708100339510978,backhand
1761072581850374912,14.819375038146973,3.1142075061798096,4.559791564941406,7.735066413879395,0.8503227829933167,-0.1011941209435463,0.5164410471916199,-2.724102020263672,0.2762429714202881,-0.4400554299354553,0.2802074042406227,0.7691625388033411,0.4081782756491796,-0.4040586831072414,0.101367633424023,2.116600576325698,-2.108749062872299,9.503748730600075,backhand
1761072581860420096,14.82942008972168,2.882246971130371,4.087418079376221,7.298777103424072,0.8175918459892273,-0.1479164361953735,0.5564754605293274,-2.5632734298706055,-0.0068382173776626,-0.045549988746643,0.2749670176325473,0.7964376861541256,0.3793741357898764,-0.382303021601196,0.148461198496073,2.1684019246916733,-2.173869285806223,8.847964814784769,backhand
1761072581870466048,14.839466094970703,2.3389291763305664,3.5102028846740723,6.584188461303711,0.7838630080223083,-0.1888951063156128,0.5915044546127319,-2.4327430725097656,-0.0322505235671997,0.4193750619888305,0.2707579766479071,0.8195642392209179,0.3522309958890596,-0.3618534461333585,0.1900368797247907,2.2172360949836865,-2.2348862908736775,7.819440624330457,backhand
1761072581880512000,14.849512100219728,2.0519039630889893,2.839224338531494,5.794084072113037,0.7519301772117615,-0.2233567833900451,0.6202519536018372,-2.3089370727539062,-0.1527570933103561,0.5871148705482483,0.2676169990201193,0.8383183203225507,0.3276406279819173,-0.3438823762418088,0.2252569117326059,2.2605248031337553,-2.2898946607993595,6.770739616390804,backhand
1761072581890557952,14.85955810546875,2.012312173843384,2.1394753456115723,5.074005126953125,0.72322678565979,-0.250821590423584,0.6434527039527893,-2.1483824253082275,-0.3058190047740936,0.6720226407051086,0.2645531179804326,0.8535921153860822,0.3051341715308699,-0.3290672194740666,0.2535288976306846,2.2978899484342614,-2.340691892546756,5.862787994446383,backhand
1761072581900603904,14.869604110717772,2.297600507736206,1.4748133420944214,4.238982677459717,0.6991554498672485,-0.2701744735240936,0.6619570851325989,-1.995542287826538,-0.4641547501087188,0.6909633278846741,0.2605435190860781,0.8659837095829804,0.2846941554560053,-0.3180227311500251,0.2735742260187295,2.328871921073613,-2.3880251446163396,5.042124217725396,backhand
1761072581910649088,14.87964916229248,2.524094820022583,0.7151551246643066,3.4785358905792236,0.6812081336975098,-0.2804162800312042,0.6762561202049255,-1.8615975379943848,-0.6790564060211182,0.732633650302887,0.2546405644976566,0.8759990810719872,0.2659956432912541,-0.3114966634327459,0.2842277723368916,2.352546529158622,-2.43299033520856,4.356915589593887,backhand
1761072581920695040,14.889695167541504,1.7832789421081543,0.0178663283586502,2.860667943954468,0.6696770191192627,-0.2870382070541382,0.6849393248558044,-1.6993858814239502,-0.7802988290786743,0.916699469089508,0.2496924807826042,0.8832564577418638,0.2496551688051508,-0.3085191194886816,0.2911334957034444,2.3674608937989734,-2.471280341685922,3.3710271545367414,backhand
1761072581930740992,14.899741172790527,1.3100465536117554,-0.6389012932777405,2.1033434867858887,0.664570152759552,-0.29329514503479,0.6872583031654358,-1.4898724555969238,-0.8241974711418152,1.0868656635284424,0.2473408337573296,0.887590624892982,0.2362457261529615,-0.3085339843004047,0.2976717442935199,2.3729762177768245,-2.500192265224066,2.558997979402607,backhand
1761072581940787200,14.90978717803955,0.8953763842582703,-1.1704368591308594,1.3414597511291504,0.6657790541648865,-0.2973423302173614,0.6843433380126953,-1.2552719116210938,-1.0088558197021484,1.0139446258544922,0.2464602961511317,0.8893533572659138,0.2263233770101628,-0.3115857138075324,0.3019078659510691,2.369943692614191,-2.519797011316876,1.992770828419316,backhand
1761072581950833152,14.919833183288574,0.710096001625061,-1.5867916345596311,0.5416161417961121,0.6724492907524109,-0.2982423901557922,0.6773948669433594,-1.0517979860305786,-1.0900938510894775,0.9619942307472228,0.2460413274996879,0.8891369360848526,0.2193922048568515,-0.3174371550548271,0.3028507099871838,2.359858277320252,-2.5321699468194065,1.8208492711057747,backhand
1761072581960878080,14.92987823486328,0.5574769377708435,-1.8922940492630005,-0.2673456072807312,0.6838443279266357,-0.2948755919933319,0.6673868298530579,-0.9245975613594056,-1.0404515266418457,0.9041158556938172,0.245461795995745,0.8871631715340432,0.2159511774137092,-0.3256609644677245,0.2993253204130652,2.3440154236578707,-2.5371395292233463,1.9907362906107937,backhand
1761072581970924032,14.939924240112305,0.3111210167407989,-2.1221418380737305,-0.9948914051055908,0.699070394039154,-0.2874569296836853,0.65472811460495,-0.8774610161781311,-0.9265780448913574,0.844814121723175,0.24469570113147,0.8836097502865612,0.2158653768344973,-0.3357974278296411,0.2915706506613912,2.323452194406654,-2.5352448657579805,2.3643373650800674,backhand
1761072581980970240,14.949970245361328,-0.1873532384634018,-2.2434275150299072,-1.6563832759857178,0.7170740365982056,-0.2775691747665405,0.6393435597419739,-0.8784052729606628,-0.7803226709365845,0.8429563045501709,0.2446367543085938,0.8784059894356104,0.2192594282088664,-0.3471038692032795,0.2812629456829248,2.2989513630769096,-2.525650568822236,2.7949371742708577,backhand
1761072581991016192,14.960016250610352,-0.6929865479469299,-2.3009233474731445,-2.255652666091919,0.7368252873420715,-0.266066700220108,0.6215282082557678,-0.8706295490264893,-0.6286476850509644,0.8442617058753967,0.2457789071441896,0.8715577923550977,0.2261661248583817,-0.3589271709626299,0.2693103499981885,2.271517437323956,-2.508046862200825,3.29582274350882,backhand
1761072582001062144,14.970062255859377,-1.092104434967041,-2.369884967803955,-2.6937947273254395,0.7576603293418884,-0.252961665391922,0.6016321778297424,-0.8258213400840759,-0.478392094373703,0.7964239120483398,0.2479802010749419,0.8632002608288157,0.2360114167513966,-0.3710656847007356,0.2557402710613117,2.241908380968256,-2.4838044285506418,3.750410229623444,backhand
1761072582011107072,14.980107069015505,-1.2981261014938354,-2.4647209644317627,-2.9583899974823,0.7789965271949768,-0.2382488250732422,0.5800013542175293,-0.7690326571464539,-0.2873706519603729,0.7153476476669312,0.2508827612721196,0.8535799955148039,0.2477940108187868,-0.3834801834574873,0.2405623564894967,2.2107998914215004,-2.455280153173915,4.063502452945285,backhand
1761072582021153024,14.990153074264526,-1.3422040939331057,-2.567500114440918,-3.1283724308013916,0.8004100918769836,-0.2216846793889999,0.5569555163383484,-0.7259625196456909,-0.0968272686004638,0.6328789591789246,0.2539237522291628,0.8429960511450323,0.2604523365355696,-0.3962889336041622,0.2235418028444061,2.1787233467897313,-2.4251380237877664,4.263834276003598,backhand
1761072582031198976,15.00019907951355,-1.2599999904632568,-2.6875247955322266,-3.2643020153045654,0.8216087222099304,-0.2027793675661087,0.5327659845352173,-0.6983177661895752,0.0624900609254837,0.5526984333992004,0.2565648388524228,0.8316525950038026,0.2733805842386523,-0.4096235781480453,0.2041954206119841,2.146075827289119,-2.3951763476961956,4.412035488262689,backhand
1761072582041244928,15.010245084762571,-1.1585239171981812,-2.8151698112487793,-3.369540214538574,0.8423857688903809,-0.1813547611236572,0.5074416399002075,-0.6777890920639038,0.1862833350896835,0.4809312224388122,0.2585563237657812,0.8196305059604142,0.2862283486439121,-0.4235893133632503,0.1823638821497679,2.112968643033382,-2.3664032953355365,4.541052740310265,backhand
1761072582051290112,15.02029013633728,-1.1737360954284668,-2.93102502822876,-3.499335527420044,0.862492561340332,-0.1577414721250534,0.4808577299118042,-0.674534797668457,0.2961997389793396,0.4254685640335083,0.2602021408861976,0.806788599265382,0.2992006464014494,-0.4380250649757368,0.1584030751728258,2.079395500545209,-2.3381586326996855,4.713163828181573,backhand
1761072582061336064,15.030336141586304,-1.3631880283355713,-3.0457024574279785,-3.6902294158935542,0.8817448616027832,-0.1321470439434051,0.4528394341468811,-0.7077487707138062,0.4072630107402801,0.4166827797889709,0.2618849471742022,0.7928766760986015,0.3126760175000365,-0.4527655919729662,0.1325347132390763,2.045242463585912,-2.309329507908046,4.97517619805634,backhand
1761072582071382016,15.040382146835327,-1.7133945226669312,-3.1102709770202637,-3.857866048812866,0.8998017311096191,-0.1050965487957,0.4234516620635986,-0.7345339059829712,0.5056244730949402,0.4506022334098816,0.2642942658905493,0.7775674894645045,0.3272837124652105,-0.4673570669257026,0.1052909839845021,2.0106530538387783,-2.2779407823153663,5.243342139454818,backhand
1761072582081427968,15.05042815208435,-1.9148792028427124,-3.1994311809539795,-3.95163893699646,0.9162951111793518,-0.0769428014755249,0.3930435180664062,-0.7289629578590393,0.5479053258895874,0.4265060424804687,0.2674525038084082,0.7609683192577607,0.3427082857629496,-0.4816092487022262,0.0770189269229926,1.976006702330692,-2.2445066735447305,5.43309971669273,backhand
1761072582091474176,15.060474157333374,-1.960321307182312,-3.3452467918395996,-4.0189313888549805,0.9311755895614624,-0.0473161526024341,0.3614871799945831,-0.717766284942627,0.5120988488197327,0.3394405543804168,0.2709448340869652,0.7431690246439842,0.3583899933380515,-0.4958278269555959,0.0473338261520076,1.9410935695461655,-2.210502272259992,5.5843840514447,backhand
1761072582101519104,15.07051920890808,-2.0035128593444824,-3.5007855892181396,-4.056100845336914,0.944338858127594,-0.0161568652838468,0.3285767734050751,-0.7202942371368408,0.4619423747062683,0.2587491869926452,0.2745313415289439,0.7242443089384464,0.3738429764804367,-0.5102391678655488,0.0161575680171027,1.905638103467325,-2.1770857579749556,5.72027250983543,backhand
1761072582111565056,15.080565214157104,-2.004711151123047,-3.6562440395355225,-4.109069347381592,0.9555266499519348,0.016519907861948,0.2944421172142029,-0.7435972094535828,0.4128624498844147,0.1985693275928497,0.2782334363026929,0.7041498576805061,0.3890938740036524,-0.524752513862696,-0.0165206593680083,1.8697100508162832,-2.1441570338708704,5.854181255962879,backhand
1761072582121611008,15.090611219406128,-2.007544755935669,-3.8346009254455566,-4.1792731285095215,0.964541792869568,0.050942339003086,0.2589677274227142,-0.7883789539337158,0.3803168535232544,0.1539961397647857,0.2818715778339314,0.682851350524524,0.4039775856223345,-0.5395040840955155,-0.0509643988238042,1.833098185866248,-2.112236057876783,6.016703755977561,backhand
1761072582131657216,15.100657224655151,-1.9872839450836184,-3.9866621494293217,-4.251528739929199,0.9710829257965088,0.0870734751224517,0.2222980707883834,-0.8187848329544067,0.3854759931564331,0.1161419451236724,0.2853549974464394,0.6603785093166457,0.4183888857292832,-0.5544579497711595,-0.0871838777865565,1.7958365449621647,-2.081628786624761,6.157781191185952,backhand
1761072582141703168,15.110703229904177,-1.847130537033081,-4.117359638214111,-4.358148574829102,0.9747778177261353,0.1252151429653167,0.184741124510765,-0.82225102186203,0.3837417364120483,0.0815552324056625,0.2883108490603687,0.6368354313982515,0.4322166043603095,-0.5696544967970628,-0.1255446714952942,1.7580961744872503,-2.0530549655584514,6.273595509077684,backhand
1761072582151747840,15.120748043060305,-1.7428053617477417,-4.289602279663086,-4.45427942276001,0.9753230810165404,0.1654220521450042,0.1462209373712539,-0.7974971532821655,0.3828109800815582,0.0834238529205322,0.2906058515162863,0.6121826219146018,0.4453570581765483,-0.5851818756348857,-0.1661859448853835,1.7196085421957443,-2.0269287941476386,6.424847346252724,backhand
1761072582161794048,15.130794048309326,-1.7248740196228027,-4.515530586242676,-4.511106967926025,0.9725162982940674,0.2071136832237243,0.1063765957951545,-0.7437107563018799,0.4000335335731506,0.1003799438476562,0.2926599031931151,0.5861941121164783,0.457782436897016,-0.6009674660644705,-0.2086237399893634,1.679746028599317,-2.002752900191497,6.61175414961367,backhand
1761072582171840000,15.14084005355835,-1.7443562746047974,-4.722112655639648,-4.5239410400390625,0.966138243675232,0.2496185153722763,0.0653270334005355,-0.7087224721908569,0.399627685546875,0.0855518579483032,0.2948477888163534,0.5587863444000746,0.4694905100899228,-0.6167668330311604,-0.2522862780808753,1.6383102145528528,-1.9800036610778111,6.768099384543269,backhand
1761072582181885952,15.150886058807371,-1.801631212234497,-4.91801643371582,-4.556153297424316,0.9559271931648254,0.292652815580368,0.0236102640628814,-0.7211402654647827,0.393153429031372,0.0821636915206909,0.2972271274185649,0.529997795111278,0.4805283232537609,-0.6323376107636219,-0.2969999452529314,1.5954901169332163,-1.9584837630945415,6.941994924863233,backhand
1761072582191931136,15.16093111038208,-1.8565561771392824,-5.0785603523254395,-4.609828472137451,0.9415843486785888,0.3362807631492615,-0.018279755488038,-0.7685955166816711,0.3969955742359161,0.0802914500236511,0.2996298412828483,0.4998556501315029,0.490922041892278,-0.6475815301443916,-0.3429648578880855,1.5513849385102567,-1.9383823029317175,7.105567861446052,backhand
1761072582201977088,15.170977115631104,-1.879838824272156,-5.1569647789001465,-4.701374053955078,0.9228229522705078,0.3805907964706421,-0.0595699362456798,-0.8364887237548828,0.3661133348941803,0.0195766687393188,0.3018144299394416,0.4684484134001482,0.5007705215369916,-0.6623390887309687,-0.3904350924824463,1.5063339035801155,-1.9198541463690972,7.227101613458854,backhand
1761072582212023040,15.181023120880129,-1.9339616298675537,-5.085600852966309,-4.850080966949463,0.8993881940841675,0.4258357882499695,-0.0988180115818977,-0.8943374752998352,0.3260716199874878,-0.041379764676094,0.3032398012999103,0.4360816319572782,0.5103173572395878,-0.6763540425814775,-0.4398854249312373,1.4613628011599875,-1.903191766566006,7.288815336353161,backhand
1761072582222068992,15.19106912612915,-1.9471381902694704,-5.014956951141357,-4.936365127563477,0.8713536858558655,0.4717409014701843,-0.1349204331636428,-0.8628697395324707,0.2835082113742828,-0.0476814657449722,0.3036551832899494,0.4030704495957956,0.5196864396822576,-0.6893866189496962,-0.4912641270022344,1.417176248039011,-1.8884963902206524,7.3012903672180895,backhand
1761072582232114944,15.201115131378174,-1.941088080406189,-5.05832052230835,-4.866613388061523,0.8392755389213562,0.5169261693954468,-0.1685345619916916,-0.7448999285697937,0.2782856225967407,-0.0190569758415222,0.3035265466208225,0.3695850505626916,0.5283366455822155,-0.7015261229527231,-0.5432562431531207,1.3726224551973467,-1.8762912270273653,7.282743666446078,backhand
1761072582242160128,15.21116018295288,-1.846433997154236,-5.044880390167236,-4.767477989196777,0.8038718104362488,0.5601714253425598,-0.1999953985214233,-0.6731192469596863,0.4044434428215027,-0.0657211542129516,0.3033244826611643,0.3358631963152054,0.5359087760930734,-0.7127355831517435,-0.5945927536265984,1.3269566618432551,-1.8667427946738049,7.1825471132751115,backhand
1761072582252206080,15.221206188201904,-1.6093060970306396,-4.979893684387207,-4.72863245010376,0.7653472423553467,0.601341962814331,-0.2294153869152069,-0.6765716075897217,0.5639564990997314,-0.1075597405433654,0.3025413980407904,0.3022997298467084,0.542132067099136,-0.7233093237852998,-0.6451796560531647,1.279565833041085,-1.8616448223561075,7.053309299181049,backhand
1761072582262252032,15.231252193450928,-1.4489805698394775,-4.981629848480225,-4.652972221374512,0.7238947153091431,0.6401904821395874,-0.2571622729301452,-0.6636072993278503,0.6349712014198303,-0.0969636738300323,0.3011478513617975,0.2689549998593462,0.5468839653145391,-0.7334105345368543,-0.6947461936761836,1.2294537528088136,-1.8618594982535104,6.968954809146369,backhand
1761072582272297984,15.241298198699951,-1.507277011871338,-5.040340423583984,-4.495880126953125,0.6800246238708496,0.6764504909515381,-0.2828096747398376,-0.6056075692176819,0.6230795383453369,-0.0722013115882873,0.2998516373419372,0.23555279999758,0.5505543093942757,-0.7426263439970797,-0.7429323833771115,1.176674424457887,-1.8655572792202104,6.920249539724894,backhand
1761072582282344192,15.251344203948976,-1.6154489517211914,-5.051241874694824,-4.3530426025390625,0.6342939734458923,0.7102907299995422,-0.3052185773849487,-0.5356153845787048,0.5119687914848328,-0.117297351360321,0.2990012005688509,0.2019905370958067,0.5537061870076004,-0.7504716173516327,-0.7899111446789912,1.122306240093853,-1.8707910370215377,6.861027597365254,backhand
1761072582292389120,15.261389255523682,-1.6250392198562622,-4.986416816711426,-4.259091377258301,0.5870170593261719,0.7418413758277893,-0.3241638541221618,-0.4972038865089416,0.3126324415206909,-0.2038970291614532,0.2982115975659185,0.1685486727467067,0.5563357071498715,-0.7570678224302414,-0.8358121837350555,1.0662486236666415,-1.8785358543221735,6.756105719709363,backhand
1761072582302435072,15.271435260772703,-1.6229925155639648,-4.939666748046875,-4.118170261383057,0.5385807752609253,0.7709869146347046,-0.3398672938346863,-0.4936436414718628,0.2328886985778808,-0.2428200542926788,0.2973341705587269,0.1354383120772715,0.5583214304533017,-0.762578475506816,-0.8803894111096872,1.007863721564698,-1.8898155117731863,6.63277759231202,backhand
1761072582312481280,15.281481266021729,-1.4824440479278564,-4.869781017303467,-3.922251462936402,0.4897995591163635,0.7972057461738586,-0.3529295623302459,-0.5077897310256958,0.3338824510574341,-0.288916140794754,0.2966028880182839,0.1029524354660671,0.5594068410469334,-0.7671319422330795,-0.9226524607036264,0.9464051211888108,-1.9052716225492496,6.4262324926999534,backhand
1761072582322527232,15.291527271270752,-1.2584303617477417,-4.724137306213379,-3.759654045104981,0.4413274824619293,0.8201068043708801,-0.364218145608902,-0.5556920766830444,0.4713971018791199,-0.3523193001747131,0.2958822589082268,0.0715745427104613,0.5592566644633441,-0.7710789209184038,-0.9615975963777628,0.8808305319061374,-1.9266844217549184,6.167342928863271,backhand
1761072582332572928,15.301573038101196,-0.9929543137550354,-4.565207004547119,-3.6584935188293457,0.3931825160980224,0.8398089408874512,-0.3743376433849334,-0.59873366355896,0.5745740532875061,-0.3755249977111816,0.2948282890451252,0.0414895591315383,0.5577721663590952,-0.7747549635016785,-0.9969311482556488,0.8099461456751333,-1.9558933515678247,5.933940351139969,backhand
1761072582342618112,15.311618089675903,-0.7729290127754211,-4.47518253326416,-3.539790630340576,0.3452755808830261,0.8565325736999512,-0.3835840225219726,-0.5810086131095886,0.6158795356750488,-0.3812017440795898,0.293527114474895,0.0124939965037438,0.5550242232905547,-0.7782247914688795,-1.0285131188641825,0.732887073399273,-1.9932116175559165,5.75802011732067,backhand
1761072582352664064,15.321664094924929,-0.6070977449417114,-4.425364971160889,-3.37963342666626,0.2979081571102142,0.8703747391700745,-0.3920443058013916,-0.4927628636360168,0.5991535782814026,-0.3915098309516907,0.2923193705076386,-0.0155488400447591,0.5511225628621661,-0.7813908652484125,-1.0559628460617043,0.6497968524754035,-2.0376782790092136,5.601280648077817,backhand
1761072582362710016,15.33171010017395,-0.5061557292938232,-4.360209941864014,-3.172722578048706,0.2516023814678192,0.881622850894928,-0.3992961049079895,-0.3820650279521942,0.527587354183197,-0.4330707788467407,0.291472706111107,-0.0426693109406155,0.5463801517775261,-0.7840227955915422,-1.0792898425339013,0.5622688921456777,-2.0871863802411372,5.416068031024608,backhand
1761072582372755968,15.341756105422974,-0.3993701934814453,-4.251056671142578,-2.9644582271575928,0.2068437188863754,0.8905414342880249,-0.4051563739776611,-0.3026689291000366,0.4399181604385376,-0.4861247539520263,0.2910230344741226,-0.0687306736448842,0.5410156274497867,-0.7860558395345703,-1.0985339432184196,0.4720345960999209,-2.1401060243410983,5.197979603006303,backhand
1761072582382801152,15.35180115699768,-0.2236692011356353,-4.0962982177734375,-2.8181240558624268,0.1638146042823791,0.8971848487854004,-0.4101513922214508,-0.2677116990089416,0.3898634910583496,-0.5223284959793091,0.2907698553640097,-0.0934875357179345,0.5349620384415475,-0.7877363758385484,-1.1133535236269383,0.3799893153500718,-2.19614738975461,4.977098571929331,backhand
1761072582392847104,15.361847162246704,-0.1052999794483184,-3.908514261245727,-2.6965644359588623,0.1222885400056839,0.901820182800293,-0.4144462943077087,-0.2580764889717102,0.4248093962669372,-0.5249152183532715,0.2904423325178621,-0.1169463760706673,0.5282995289035479,-0.7892188044222687,-1.1239635152628469,0.2869230058996829,-2.2549014732591317,4.749634888421549,backhand
1761072582402893056,15.371893167495728,-0.0143405180424451,-3.757199287414551,-2.525963306427002,0.0825549215078353,0.9047509431838988,-0.4178639650344848,-0.228444218635559,0.4770696759223938,-0.5353373289108276,0.2901396074798097,-0.1391189290353565,0.5212618722835262,-0.7904118734601745,-1.1307946969338514,0.1950522654369904,-2.3139907309207577,4.527388072743683,backhand
1761072582412939008,15.381939172744753,-0.0143632879480719,-3.619623899459839,-2.395021438598633,0.0446979589760303,0.9063800573349,-0.4200920462608337,-0.1902668178081512,0.4807659387588501,-0.5222907662391663,0.2899818715573801,-0.1601796952276883,0.514097703065142,-0.7911741507894817,-1.1346350171045851,0.1060015820748368,-2.371379269495506,4.340277775549463,backhand
1761072582422984960,15.391985177993774,-0.0332155376672744,-3.5020313262939453,-2.316868543624878,0.0081877894699573,0.9070579409599304,-0.4209261536598205,-0.143929973244667,0.4616706967353821,-0.4174985289573669,0.289719658914156,-0.1803834840210042,0.5069504117677134,-0.791533694739646,-1.136242437825553,0.019449390399669,-2.4274226003174,4.199191175777202,backhand
1761072582433030144,15.40203022956848,-0.121581383049488,-3.379479169845581,-2.133985996246338,-0.0267337262630462,0.9072128534317015,-0.4198216795921325,-0.0953213348984718,0.4157394170761108,-0.3858576416969299,0.2894725961934628,-0.1998609909259598,0.5001447302548716,-0.7912752568792302,-1.136610540207622,-0.0635929053776392,-2.480795044412861,3.9986945024970186,backhand
1761072582443076096,15.412076234817505,-0.1668242365121841,-3.1724226474761963,-1.9588079452514648,-0.0591433830559253,0.9069274067878724,-0.4171146750450134,-0.1004330217838287,0.3657318353652954,-0.4903559982776642,0.2894060025927538,-0.2182037869233025,0.4937912137190506,-0.7904438097805718,-1.1359324268161468,-0.1408527225565783,-2.5296141591648413,3.7321608146605922,backhand
1761072582453123840,15.422123908996582,-0.1724492907524109,-2.916947603225708,-1.838234066963196,-0.0891213417053222,0.9062507152557372,-0.4132398962974548,-0.1535849869251251,0.3743280172348022,-0.5471941232681274,0.2891831034187825,-0.2352153611737362,0.4879075570091111,-0.7892991895353836,-1.1343289417667692,-0.2124116036337353,-2.574813119588943,3.452162592171647,backhand
1761072582463169792,15.432169914245604,-0.0965734422206878,-2.676240921020508,-1.7171646356582642,-0.1168679967522621,0.9049769043922424,-0.4090948104858398,-0.1786642074584961,0.4364079236984253,-0.6139917373657227,0.2887759579181134,-0.250830033508307,0.4822207959250757,-0.7881343648837232,-1.1313254896044789,-0.2782629712202173,-2.616507645204658,3.181233453087407,backhand
1761072582473215744,15.442215919494627,-0.002855768892914,-2.4871158599853516,-1.574965238571167,-0.142374575138092,0.903024673461914,-0.4053096771240234,-0.1558126807212829,0.4567470550537109,-0.6702671051025391,0.2884106320692382,-0.2650662820246162,0.4765343857217524,-0.7870668041715644,-1.1267590526475662,-0.3378089392732574,-2.6537155006362205,2.943852740731808,backhand
1761072582483260928,15.452260971069336,0.0272342227399349,-2.3462841510772705,-1.4413957595825195,-0.1658305674791336,0.9006215929985046,-0.401722639799118,-0.10511976480484,0.4538705945014953,-0.6724198460578918,0.2882237225800777,-0.2781737845710314,0.4709119140792419,-0.7859952296261146,-1.1211976774046464,-0.3914907883131412,-2.68633141772399,2.7537996942819034,backhand
1761072582493306880,15.46230697631836,0.0526576563715934,-2.2512941360473633,-1.2999236583709717,-0.1874573528766632,0.8980374336242676,-0.3979806005954742,-0.0518767535686492,0.4165682792663574,-0.6467887163162231,0.2882635050400217,-0.2904088561153553,0.46548082839983,-0.7847894652026819,-1.115287837733326,-0.4401971072125035,-2.7148329316287723,2.600173000661372,backhand
1761072582503352832,15.472352981567385,-0.0122425127774477,-2.171966075897217,-1.12520432472229,-0.2071841061115265,0.8955088257789612,-0.3938765823841095,-0.0200802981853485,0.3845357298851013,-0.6258072853088379,0.288671510458185,-0.3018929671924493,0.460350239143409,-0.7833307778888863,-1.1095731931700223,-0.4842405972279963,-2.7391780142734037,2.446154387266103,backhand
1761072582513398784,15.482398986816406,-0.0232687648385763,-2.0562808513641357,-0.9844915866851808,-0.2249493896961212,0.8933225274085999,-0.3890663981437683,-0.0192065089941024,0.4062075018882751,-0.6203482747077942,0.2893718349166331,-0.3126619564820139,0.4557513655788676,-0.7815351234962887,-1.1046846844693463,-0.5242188848688811,-2.7601099862445,2.2799245731729445,backhand
1761072582523444992,15.49244499206543,0.0119986776262521,-1.923620581626892,-0.8741821050643921,-0.2410135567188263,0.8911687731742859,-0.384357750415802,-0.0482473671436309,0.4006251692771911,-0.6619832515716553,0.2902490043235095,-0.3225895928223872,0.451394593734971,-0.7797015530495583,-1.099914882334877,-0.5600758919214939,-2.7778977635922644,2.112972896924656,backhand
1761072582533489920,15.502490043640137,0.0778454318642616,-1.7858012914657593,-0.7337411642074585,-0.2553344666957855,0.8889923095703125,-0.3801277279853821,-0.0682586729526519,0.40057373046875,-0.6853172183036804,0.2913641802641157,-0.3316012722958384,0.4471875863152054,-0.7779272936567418,-1.0951399054046642,-0.5914839935511316,-2.792234759779049,1.9322324549379206,backhand
1761072582543535872,15.51253604888916,0.1052514910697937,-1.630259394645691,-0.6138089299201965,-0.2678109109401703,0.8868638873100281,-0.3764969408512115,-0.0797843337059021,0.394584596157074,-0.6967300772666931,0.2927368615093143,-0.3396332345929867,0.4431713015710473,-0.7762433281981089,-1.0905125968641414,-0.6182849196477481,-2.803067915824824,1.745160443240886,backhand
1761072582553582080,15.522582054138184,0.0955192372202873,-1.4394057989120483,-0.5622625350952148,-0.2788227200508117,0.8848715424537659,-0.3731759786605835,-0.0920116305351257,0.3630685210227966,-0.6928335428237915,0.2940321933482739,-0.3467725821653436,0.4395006057695702,-0.7746826088449826,-1.0862182137294036,-0.6416819792723001,-2.8120486196212457,1.548273921821483,backhand
1761072582563628032,15.532628059387209,0.0733396336436271,-1.2483460903167725,-0.5208882093429565,-0.2886812686920166,0.8830004334449768,-0.3700989484786987,-0.0771633982658386,0.2932537794113159,-0.6717253923416138,0.2950199434036465,-0.3530721043255864,0.436223119810899,-0.7733127504305523,-1.0822166848409405,-0.662433169514024,-2.820245140400595,1.3546479947590313,backhand
1761072582573672704,15.542672872543337,0.1019033342599868,-1.0942918062210083,-0.4541274905204773,-0.2973940968513489,0.8812201619148254,-0.3674341738224029,-0.0268399119377136,0.2306267619132995,-0.6398289799690247,0.2958117045326804,-0.3585601820316005,0.4332637829057171,-0.7721480538900468,-1.078437269042157,-0.6804347039025143,-2.8273348646934204,1.189155424804582,backhand
1761072582583718656,15.552718877792358,0.1372631788253784,-0.951741337776184,-0.3611538708209991,-0.3048020899295807,0.8795021772384644,-0.3654744625091553,0.0284806787967681,0.2074424028396606,-0.6067240238189697,0.296660826875901,-0.3632241515474967,0.4305008583452843,-0.7711871107309145,-1.0748151168123616,-0.6951257684698041,-2.832365758859307,1.0271732437628227,backhand
1761072582593764864,15.562764883041382,0.2027159035205841,-0.8166220188140869,-0.2808410823345184,-0.3110442459583282,0.8777726888656616,-0.3643717169761657,0.0588774979114532,0.2144666910171508,-0.5829549431800842,0.2975928560823692,-0.367106079911202,0.4278402387818341,-0.7704702796099198,-1.0711930048226797,-0.7066066267728323,-2.8353152069852827,0.8870383152260027,backhand
1761072582603810816,15.572810888290403,0.2707825601100921,-0.699759840965271,-0.1996764689683914,-0.316005140542984,0.8760852813720703,-0.364163875579834,0.0715593695640564,0.1869182586669922,-0.5839715003967285,0.2987100533233156,-0.3701975017915742,0.4252903350196742,-0.769970282360343,-1.0676821016789249,-0.714712068213852,-2.8358865976779772,0.7764391297115325,backhand
1761072582613856768,15.582856893539429,0.3403994143009186,-0.5939157009124756,-0.1085690110921859,-0.3197703659534454,0.8744389414787292,-0.3648335337638855,0.0836253464221954,0.1442225575447082,-0.5651896595954895,0.3000570257837416,-0.372570892398633,0.4228169458564798,-0.7696639436366564,-1.0642781145465596,-0.7196693045548316,-2.8341181249937524,0.6931052237693067,backhand
1761072582623901952,15.592901945114136,0.4019485414028168,-0.4868459701538086,-0.0079718325287103,-0.3222906589508056,0.8728811144828796,-0.3663432002067566,0.0926764011383056,0.1021249890327453,-0.5449727177619934,0.3016620081651012,-0.3742298255242214,0.4204526510576482,-0.7695269237226814,-1.0610762214180975,-0.7215142947591618,-2.830012599918797,0.6313835432640931,backhand
1761072582633947904,15.60294795036316,0.4834207892417907,-0.3968577980995178,0.0867282226681709,-0.3235841989517212,0.8713577389717102,-0.3688210844993591,0.0941377878189086,0.0780746340751648,-0.5273581147193909,0.3035765902639509,-0.3751749457044243,0.4181306230347986,-0.7695790087447314,-1.0579628402104455,-0.7201579066886789,-2.8233817267214936,0.6314376897135088,backhand
1761072582643993856,15.612993955612184,0.5175936818122864,-0.3183624744415283,0.1682036370038986,-0.3238290250301361,0.8698757886886597,-0.3720901012420654,0.0954506993293762,0.0732548236846923,-0.4920609295368194,0.3057691834213537,-0.3755263242383922,0.4158544653022479,-0.7697729253329422,-1.0549504183142948,-0.716160362583262,-2.814642580684311,0.6305159380109835,backhand
1761072582654039808,15.623039960861206,0.5274077653884888,-0.2340964078903198,0.2125750035047531,-0.3231725990772247,0.8685491681098938,-0.3757415115833282,0.089514821767807,0.0604058504104614,-0.4520020186901092,0.3080860680638325,-0.3753918431328319,0.4137755502877987,-0.7700348156488224,-1.052267330536072,-0.7103244118479671,-2.8047136619933553,0.6149375669889391,backhand
1761072582664085760,15.63308596611023,0.5470991730690002,-0.1562540680170059,0.2182272970676422,-0.3220207393169403,0.8671900033950806,-0.3798478245735168,0.0854942202568054,0.0037970542907714,-0.4146926403045654,0.3103440629168466,-0.3748468959235335,0.411783792897089,-0.7704613100327277,-1.0495314196480778,-0.7031936581899125,-2.79426585991814,0.6093898523360033,backhand
1761072582674130944,15.643131017684937,0.5226126313209534,-0.0976039096713066,0.2459926307201385,-0.3204975128173828,0.8658715486526489,-0.3841197490692138,0.091127336025238,-0.0469932556152343,-0.3721364140510559,0.3125131723002227,-0.3740213216714753,0.4099367936457602,-0.7709704933615344,-1.0468898727564138,-0.6953490192755151,-2.783737078146514,0.5858010412827462,backhand
1761072582684176896,15.65317702293396,0.4866631329059601,-0.0483548678457737,0.2743566036224365,-0.3185190260410309,0.8647549152374268,-0.3882580995559692,0.0966410338878631,-0.0588163137435913,-0.339586079120636,0.3146149022613536,-0.3729772798675503,0.4083612301622567,-0.7714573075730692,-1.0446621702132066,-0.6870445977870714,-2.7732921411142746,0.5607590785047222,backhand
