time,seconds_elapsed,rotationRateX,rotationRateY,rotationRateZ,gravityX,gravityY,gravityZ,accelerationX,accelerationY,accelerationZ,quaternionW,quaternionX,quaternionY,quaternionZ,pitch,roll,yaw
1761072567283960576,0.2529606819152832,-0.07162580639123917,0.11357448250055313,0.08046375960111618,0.21071729063987732,-0.07138095796108246,-0.9749374389648438,0.01277819275856018,0.014221534132957458,-0.02199554443359375,0.6316826657160873,0.10467764671405205,0.039672131266195405,-0.767102139299603,0.07144171290928233,0.21285996406210786,-1.7714548021634662
1761072567294005760,0.26300573348999023,-0.06394578516483307,0.12587375938892365,0.07638060301542282,0.21184317767620087,-0.07089588791131973,-0.9747288227081299,0.006464317440986633,0.005176275968551636,-0.013476133346557617,0.6319945451255751,0.1049472400003278,0.04027002971643196,-0.7667771931105796,0.0709554102366007,0.21400740338527358,-1.7705436314355971
1761072567304051712,0.27305173873901367,-0.05292389541864395,0.12525390088558197,0.07717368751764297,0.2149656116962433,-0.07304029911756516,-0.9738864898681641,-0.007491856813430786,0.003353416919708252,-0.012456893920898438,0.6322774484314163,0.1068467010406282,0.040503530472112574,-0.7662692364476111,0.07310540029093339,0.2172461568511844,-1.7698048871794207
1761072567314097664,0.2830977439880371,-0.027202554047107697,0.11966446042060852,0.08422760665416718,0.21934270858764648,-0.07196392118930817,-0.9729902148246765,-0.010648265480995178,0.019717834889888763,-0.009172201156616211,0.6323942158181642,0.10821130336777182,0.042369861894431975,-0.7658802459905674,0.07202618391298708,0.22172517713004072,-1.7691703177937077
1761072567324143616,0.29314374923706055,-0.024488259106874466,0.11515998840332031,0.09369425475597382,0.2231130748987198,-0.07555386424064636,-0.9718601703643799,-0.008681327104568481,0.027168244123458862,-0.010866880416870117,0.6327003716477101,0.11083043087795824,0.04226745590931963,-0.7652582906740785,0.07562593455450933,0.22566302920930484,-1.7684493204650937
1761072567334189568,0.303189754486084,-0.056251250207424164,0.10415741056203842,0.09508734941482544,0.2239835262298584,-0.07795681059360504,-0.971470057964325,-0.005737081170082092,0.02465786039829254,-0.0032460689544677734,0.6331417126448914,0.11192289137021796,0.041692048783039254,-0.7647656714471581,0.07803598429236375,0.22660153539109562,-1.7674423982535827
1761072567344234752,0.313234806060791,-0.0924910455942154,0.0918152928352356,0.10062184929847717,0.22241583466529846,-0.07341062277555466,-0.9721841812133789,-0.002353578805923462,0.017014138400554657,0.010407447814941406,0.6335366151015023,0.10981910615541049,0.04298458699047593,-0.7646720866959864,0.07347671876689352,0.2249089189033528,-1.766127049926383
1761072567354280704,0.32328081130981445,-0.12477628141641617,0.0842662900686264,0.09680074453353882,0.22154904901981354,-0.06857482343912125,-0.9727350473403931,-0.004813209176063538,0.0017260760068893433,0.020250916481018066,0.6339255897667802,0.10789699898577959,0.04461729786441531,-0.7645298913878638,0.06862868129047577,0.22393883308261686,-1.7647593971017628
1761072567364326656,0.3333268165588379,-0.13040833175182343,0.07019681483507156,0.08176640421152115,0.22179797291755676,-0.0656733289361,-0.9728785753250122,-0.008831053972244263,0.001327015459537506,0.025292515754699707,0.6342823644282879,0.1070371850045331,0.04586682660484267,-0.7642807829510786,0.06572062916100878,0.22415012076578042,-1.7635657376820426
1761072567374372608,0.34337282180786133,-0.1517740786075592,0.05572758987545967,0.07769815623760223,0.221520334482193,-0.06437836587429047,-0.9730283617973328,-0.013451486825942993,0.008790597319602966,0.032446086406707764,0.6346877549555681,0.10648615014248021,0.046330612006431474,-0.7639932171093387,0.06442291779261522,0.2238455089438196,-1.7624116849728346
1761072567384417792,0.35341787338256836,-0.1629612147808075,0.03952465206384659,0.06947591155767441,0.22007527947425842,-0.06350883096456528,-0.973413348197937,-0.017820030450820923,0.012590251863002777,0.03974330425262451,0.6351459058326593,0.10561260177359894,0.04625274401536461,-0.7637383779001957,0.06355160199476195,0.22234802017240246,-1.761227997185575
1761072567394463744,0.3634638786315918,-0.18226070702075958,0.024644605815410614,0.06219722703099251,0.21928684413433075,-0.06098899245262146,-0.9737523198127747,-0.017886072397232056,0.01652488112449646,0.04594165086746216,0.6354967618797901,0.10446924138228471,0.04701069327000634,-0.7635575232986771,0.0610268653037517,0.22150265571413005,-1.7601439268300794
1761072567404509696,0.37350988388061523,-0.2146451473236084,0.022875867784023285,0.054853200912475586,0.21905472874641418,-0.058310478925704956,-0.9739686250686646,-0.024032145738601685,0.014975517988204956,0.04402172565460205,0.6358176880247204,0.10349338579366561,0.04800832469360247,-0.7633610737104926,0.0583435723442676,0.22122823155455593,-1.759087475532354
1761072567414555904,0.38355588912963867,-0.24305495619773865,0.03144511952996254,0.02028191089630127,0.21923689544200897,-0.055841315537691116,-0.9740723371505737,-0.031935274600982666,0.010400641709566116,0.030499398708343506,0.6360724732026419,0.10275051615149783,0.04905262128990828,-0.7631828199475688,0.05587037619604513,0.22138345180007737,-1.758193282695213
1761072567424601856,0.3936018943786621,-0.271144837141037,0.036680564284324646,0.014793134294450283,0.21978920698165894,-0.05342913791537285,-0.9740831851959229,-0.025636374950408936,0.005287662148475647,0.02758049964904785,0.6362462185245266,0.10217521532484666,0.050186030928119435,-0.7630415142564125,0.05345459184971378,0.22192066671900496,-1.7574882958651483
1761072567434646528,0.40364670753479004,-0.2928975224494934,0.0438481941819191,0.0030264900997281075,0.22021816670894623,-0.05133313313126564,-0.9740989804267883,-0.013843059539794922,0.0034205392003059387,0.031853556632995605,0.6364481684109995,0.1016517040881094,0.05116082036016283,-0.7628782070752603,0.051355703297070565,0.22233616486355065,-1.7567422310739598
1761072567444690688,0.41369080543518066,-0.29699525237083435,0.06369344145059586,-0.04537957161664963,0.2206968069076538,-0.04891003295779228,-0.9741153717041016,-0.02140176296234131,0.0007685534656047821,0.022546768188476562,0.636527766027027,0.10104977580955443,0.05226149897499583,-0.7628172140330454,0.04892955539106107,0.22279997881683544,-1.7562811209563887
1761072567454736640,0.4237368106842041,-0.3513122797012329,0.06620053946971893,-0.07301625609397888,0.22122275829315186,-0.04588194563984871,-0.974143385887146,-0.026764750480651855,-0.006318364292383194,0.032035231590270996,0.6364516543912462,0.10028158909005863,0.05359017738718032,-0.7628899998102808,0.045898059083900884,0.2233072681962788,-1.7561652648800818
1761072567464782592,0.43378281593322754,-0.37974944710731506,0.07009561359882355,-0.09915873408317566,0.22169215977191925,-0.04221666604280472,-0.9742023944854736,-0.02224452793598175,-0.0042921192944049835,0.04366040229797363,0.6363097845603425,0.09929078002316181,0.05513740041188689,-0.7630276589577193,0.04222921673155985,0.22375233915695045,-1.7561600259947514
1761072567474828544,0.4438285827636719,-0.3775920271873474,0.07556707412004471,-0.1382392942905426,0.2222851663827896,-0.03833575174212456,-0.9742277264595032,-0.030878916382789612,-0.003747984766960144,0.045181095600128174,0.6360377333062356,0.09828903859949482,0.05679258715730585,-0.763262657890714,0.03834514870516385,0.22432536493148184,-1.7564580561700178
1761072567484873472,0.4538736343383789,-0.38484007120132446,0.08642394840717316,-0.1831766813993454,0.22288645803928375,-0.034352127462625504,-0.9742389917373657,-0.04251231253147125,0.014271561056375504,0.05584299564361572,0.6356128731436651,0.09727051783928027,0.058471912929651586,-0.7636201288253519,0.034358887165709305,0.22490943538656694,-1.7571366968482554
1761072567494919424,0.46391963958740234,-0.37853875756263733,0.08826392889022827,-0.22497232258319855,0.2234681248664856,-0.030314845964312553,-0.974239706993103,-0.052905380725860596,0.022868562489748,0.05946004390716553,0.6350092964783555,0.09624322699620902,0.06014470404577567,-0.7641224875080104,0.03031949109359186,0.2254765480492424,-1.758270070403844
1761072567504965632,0.4739656448364258,-0.41949886083602905,0.10339164733886719,-0.2600996792316437,0.2244967669248581,-0.02589738555252552,-0.9741306304931641,-0.0659426897764206,0.011325245723128319,0.06611061096191406,0.6342276159180179,0.09528524316872564,0.06209182594538136,-0.764735769406085,0.02590028029785436,0.2265038856868071,-1.7597824088657679
1761072567515011584,0.4840116500854492,-0.4970567524433136,0.1075909212231636,-0.2945980131626129,0.22557103633880615,-0.020804712548851967,-0.9740045666694641,-0.07867467403411865,0.006415676325559616,0.08330327272415161,0.6333400981884505,0.09414123279272617,0.06430513361826021,-0.7654297288377367,0.020806214395329356,0.22757926436959008,-1.7614812919578868
1761072567525056512,0.49405670166015625,-0.5608164668083191,0.11733825504779816,-0.3372797667980194,0.22674401104450226,-0.014898714609444141,-0.9738404154777527,-0.08946068584918976,0.014288369566202164,0.08728951215744019,0.6323370974288371,0.0927903729767555,0.06685604844331375,-0.7662049870390041,0.01489926601018746,0.22875915722646142,-1.7633657940404486
1761072567535102720,0.5041027069091797,-0.6218851208686829,0.12200731039047241,-0.367787629365921,0.22794632613658905,-0.008314882405102253,-0.9736381769180298,-0.09606462717056274,0.01798895373940468,0.09555596113204956,0.6312086440893693,0.09125227174559097,0.06967011505164154,-0.7670689418088736,0.00831497839485251,0.2299760507278841,-1.7654738511651855
1761072567545148672,0.5141487121582031,-0.7114608883857727,0.13407282531261444,-0.40946051478385925,0.22919556498527527,-0.000936013413593173,-0.9733799695968628,-0.11446473002433777,0.018575172871351242,0.12071883678436279,0.6299816215333258,0.08949631907436915,0.07280409313481023,-0.7679929395148246,0.0009360135695189685,0.23125126955297584,-1.7677120277658733
1761072567555194624,0.5241947174072266,-0.785327136516571,0.14930477738380432,-0.4883180260658264,0.23056024312973022,0.007459036074578762,-0.9730294942855835,-0.14141839742660522,0.031130444258451462,0.147208571434021,0.6285311283545398,0.0874938422672501,0.07635504839982725,-0.7690666524832234,-0.007459105305885931,0.23265998849113556,-1.7703611945554152
1761072567565240576,0.53424072265625,-0.8485790491104126,0.1475726217031479,-0.5600245594978333,0.2319343239068985,0.01662716083228588,-0.9725893139839172,-0.1598518192768097,0.020650068297982216,0.164544939994812,0.6267826982098893,0.08529339330302,0.08018958621077299,-0.7703494530770922,-0.016627927598421976,0.2340987313470789,-1.7736387569425727
1761072567575285760,0.544285774230957,-0.9360013604164124,0.15954247117042542,-0.6317040324211121,0.23329009115695953,0.026718415319919586,-0.972040057182312,-0.17141570150852203,0.011138640344142914,0.179040789604187,0.632304917485989,0.08200794111725764,0.08517437018258653,-0.7656438389405985,-0.026721594599680445,0.2355454518142761,-1.757822717160423
1761072567585331712,0.5543317794799805,-1.0038397312164307,0.15621691942214966,-0.7327309846878052,0.2346065491437912,0.03780132532119751,-0.971355140209198,-0.1628139466047287,0.01491779088973999,0.189342200756073,0.6302653364473869,0.07920537883349225,0.08971584583372064,-0.767100475885243,-0.03781033502273021,0.23698641568956294,-1.7615192539251732
1761072567595377664,0.5643777847290039,-1.092620611190796,0.14137539267539978,-0.7795640230178833,0.23572300374507904,0.04979346692562103,-0.9705438017845154,-0.14124058187007904,0.0017964951694011688,0.19808286428451538,0.6293675058924232,0.07591622562750533,0.09468276555583109,-0.7675730438847785,-0.04981406518441978,0.23826374474086742,-1.7620594414868227
1761072567605423616,0.5744237899780273,-1.2078124284744263,0.1377968043088913,-0.8154954314231873,0.2366340309381485,0.0628940612077713,-0.9695611000061035,-0.1355598121881485,-0.0037357360124588013,0.20471429824829102,0.627343987553821,0.0723479337624997,0.09992617949003252,-0.7689083231933944,-0.06293559831202457,0.23938318799830688,-1.7653117843024413
1761072567615469568,0.5844697952270508,-1.288307547569275,0.13248512148857117,-0.8689042925834656,0.23734953999519348,0.07701916247606277,-0.968366265296936,-0.14442351460456848,0.0014873072504997253,0.21297991275787354,0.6243956269786431,0.06852708104762313,0.10545567328374922,-0.7709171964931563,-0.0770955141758342,0.24036448912382347,-1.7707342528492818
1761072567625514496,0.5945146083831787,-1.420706033706665,0.13056524097919464,-0.9102829098701477,0.23786649107933044,0.09229525178670883,-0.9669028520584106,-0.16161832213401794,0.015126623213291168,0.22663795948028564,0.6213237157523335,0.06431786393832423,0.1114082090310827,-0.772921849326041,-0.09242678918510686,0.24121860973697604,-1.776198129551101
1761072567635560448,0.6045606136322021,-1.5145764350891113,0.13077962398529053,-0.9830620288848877,0.23817381262779236,0.10882700234651566,-0.965106189250946,-0.17483457922935486,0.037870995700359344,0.23414915800094604,0.6165368537372119,0.05992898778694535,0.1177091036670637,-0.7761670661295567,-0.10904296521129513,0.24195058600830324,-1.7857688563607248
1761072567645606400,0.6146066188812256,-1.6165752410888672,0.12847839295864105,-1.097413182258606,0.23820818960666656,0.12648801505565643,-0.9629421830177307,-0.17285481095314026,0.04727907478809357,0.2249203324317932,0.6128527982339219,0.054968024581256304,0.12452881036803658,-0.7783846603481648,-0.1268277527767671,0.24250691656016202,-1.7921719261178526
1761072567655652608,0.624652624130249,-1.7048797607421875,0.1117476224899292,-1.1544653177261353,0.23783433437347412,0.1452517807483673,-0.9603836536407471,-0.12607896327972412,0.06794403493404388,0.22733616828918457,0.6086124976643373,0.04964304839146861,0.1316956336377443,-0.7808859386377689,-0.1457674441753268,0.24276108848634728,-1.7996906812521234
1761072567665698560,0.6346986293792725,-1.7661007642745972,0.08586621284484863,-1.1528266668319702,0.23699870705604553,0.1647735834121704,-0.9574347734451294,-0.047637149691581726,0.08830870687961578,0.2201606035232544,0.6044111300105144,0.04394872830678841,0.139108360465248,-0.783201591855278,-0.165528446781061,0.24265741993266574,-1.8068515297472694
1761072567675743488,0.6447436809539795,-1.767238736152649,0.06270045042037964,-1.1408658027648926,0.23572546243667603,0.18448993563652039,-0.9541472792625427,0.013236939907073975,0.12004497647285461,0.22128289937973022,0.5998891754449633,0.03813341484767625,0.1465340112951014,-0.7856250330688381,-0.18555285779742356,0.2422036160455306,-1.8146732059839785
1761072567685789696,0.6547896862030029,-1.7263057231903076,0.020661648362874985,-1.1193724870681763,0.2339220941066742,0.20385469496250153,-0.9506438374519348,0.040110498666763306,0.16697965562343597,0.23898917436599731,0.5956998460471506,0.03220633658396944,0.1537557396762442,-0.7876952040317904,-0.20529369657719715,0.24127361887986218,-1.8216325900717776
1761072567695835648,0.6648356914520264,-1.678938388824463,0.005660594906657934,-1.1358444690704346,0.23160305619239807,0.22274094820022583,-0.9469670057296753,0.03640231490135193,0.21520155668258667,0.2257755994796753,0.5909276852506072,0.026384717147890948,0.1606871170432244,-0.7901189525913394,-0.22462515889464338,0.23986491426503762,-1.8301023533818601
1761072567705881600,0.6748816967010498,-1.6978641748428345,0.014724930748343468,-1.1868174076080322,0.22900307178497314,0.24136969447135925,-0.9430261254310608,0.01602257788181305,0.23046258091926575,0.2080560326576233,0.5855775264745469,0.02070200629780578,0.16750631981006675,-0.7928505495461136,-0.243777031335689,0.23822717224264267,-1.8399796447461096
1761072567715926528,0.6849267482757568,-1.8143043518066406,0.016679823398590088,-1.1890099048614502,0.22614485025405884,0.2606795132160187,-0.9385652542114258,0.013402879238128662,0.19613811373710632,0.20754718780517578,0.5811283220481555,0.014563629596181875,0.1746576107346909,-0.7947153704186692,-0.26372597128301106,0.2364405846424523,-1.8473151587702528
1761072567725972736,0.6949727535247803,-1.9618059396743774,0.030125657096505165,-1.188415765762329,0.22312603890895844,0.28109845519065857,-0.933380126953125,0.024386778473854065,0.15695086121559143,0.198089599609375,0.576611613743923,0.008072278563926966,0.18233153116666836,-0.7963723684352223,-0.2849385165894844,0.2346480701848264,-1.8544147896743663
1761072567736018688,0.7050187587738037,-2.1290230751037598,0.024523697793483734,-1.231628656387329,0.2198449969291687,0.3029767572879791,-0.9272935390472412,0.044299885630607605,0.15435966849327087,0.2106645107269287,0.572009115888548,0.001080486160029021,0.19066219090061137,-0.7977796927871924,-0.30781467603223533,0.2327844900700513,-1.8612292123750966
1761072567746064640,0.7150647640228271,-2.1377756595611572,0.045258138328790665,-1.2450999021530151,0.21626906096935272,0.32558882236480713,-0.9204453229904175,0.07354111969470978,0.16594254970550537,0.20787513256072998,0.5666423136849941,-0.00603690353313135,0.19935116765478847,-0.7994617921992784,-0.33163440740439665,0.2307753201485192,-1.869615802572449
1761072567756110592,0.7251107692718506,-2.1267192363739014,-0.016780463978648186,-1.2314748764038086,0.21229436993598938,0.34789180755615234,-0.9131825566291809,0.10429498553276062,0.19242191314697266,0.2335560917854309,0.5609803546714388,-0.013105952511293482,0.20793496965647865,-0.8011818179248165,-0.35532149697327203,0.22842009912791425,-1.8786971117970812
1761072567766155520,0.7351555824279785,-2.0837011337280273,-0.12712734937667847,-1.24815833568573,0.20717252790927887,0.3699163496494293,-0.9056718349456787,0.14806734025478363,0.21635684370994568,0.2436845302581787,0.5546883661280768,-0.020351818039384628,0.21621722908185187,-0.8032165552365875,-0.3789189815168912,0.22488097021309245,-1.8895370545889794
1761072567776201472,0.745201587677002,-1.9937440156936646,-0.14771170914173126,-1.253753662109375,0.20112794637680054,0.3908311724662781,-0.898219645023346,0.16428954899311066,0.17780286073684692,0.16923099756240845,0.5490490902782396,-0.02777537246233133,0.22387207478287163,-0.8047700608455621,-0.4015344142657561,0.22028475961650482,-1.8991698293289434
1761072567786247424,0.7552475929260254,-2.0814409255981445,-0.23552575707435608,-1.2614612579345703,0.19437791407108307,0.4116370975971222,-0.8903775215148926,0.17760086059570312,0.12063524127006531,0.20666170120239258,0.5431639380963008,-0.03536567472624826,0.23143145205021007,-0.8063259686457349,-0.42424968291126075,0.21493732661438827,-1.9095185450670478
1761072567796293376,0.7652935981750488,-2.1550452709198,-0.36002400517463684,-1.2684787511825562,0.1863427311182022,0.4328922629356384,-0.8819754123687744,0.2167639434337616,0.062209635972976685,0.2214377522468567,0.5374133073014948,-0.043654477550156286,0.23896980362176654,-0.8075732991855746,-0.44769878265746843,0.20821667826294732,-1.9196828957728582
1761072567806339584,0.7753396034240723,-2.2028605937957764,-0.41249653697013855,-1.3085960149765015,0.1771334409713745,0.4545193016529083,-0.8729466795921326,0.2254849672317505,-0.0010281205177307129,0.16670894622802734,0.5314655744754684,-0.052490099757834044,0.24651864608790694,-0.8087135673010475,-0.4718324848079768,0.20019627028187761,-1.930510924334489
1761072567816384512,0.7853846549987793,-2.1796441078186035,-0.39635005593299866,-1.3795104026794434,0.16731470823287964,0.47594720125198364,-0.8634118437767029,0.23049716651439667,-0.02111324667930603,0.12233829498291016,0.5253140462422867,-0.06146407535585862,0.2540004692129636,-0.8097845866494044,-0.496040741944699,0.19141077713386503,-1.942048532669333
1761072567826430464,0.7954306602478027,-2.070688009262085,-0.48338043689727783,-1.3959532976150513,0.1567012220621109,0.49655094742774963,-0.8537458181381226,0.2517307996749878,-0.025527387857437134,0.11168038845062256,0.5188566580360144,-0.07043032080128367,0.2610874845684267,-0.8109627747205838,-0.5196207061260918,0.1815250619731212,-1.9548691181958142
1761072567836476672,0.8054766654968262,-1.8366726636886597,-0.5365976095199585,-1.3345857858657837,0.14544755220413208,0.5153272151947021,-0.8445607423782349,0.2604209780693054,0.0071032047271728516,0.07406818866729736,0.5127875343550582,-0.07923365353618213,0.26728571998172085,-0.8119909328760221,-0.5413894308462445,0.17054390512308137,-1.9676129443863057
1761072567846522624,0.8155226707458496,-1.7215211391448975,-0.632746696472168,-1.3253512382507324,0.133480504155159,0.5321587324142456,-0.8360562324523926,0.2556949257850647,0.0887213945388794,0.06232881546020508,0.5074237746957208,-0.08798467741864904,0.27245288896489916,-0.8127417623858045,-0.5611482598524205,0.1583187905194898,-1.9796382417175804
1761072567856567552,0.8255677223205566,-1.5272445678710938,-0.6914052367210388,-1.360291600227356,0.12071486562490463,0.5475118160247803,-0.828045129776001,0.24747973680496216,0.20094704627990723,0.016338586807250977,0.501365993057131,-0.09640767284747125,0.2769169663933257,-0.8140360221804951,-0.5793878922232953,0.14476316848646448,-1.9943132907764416
1761072567866613504,0.8356137275695801,-1.378499150276184,-0.6335667967796326,-1.3180540800094604,0.10751990973949432,0.5613248348236084,-0.8205814361572266,0.23063011467456818,0.1744844913482666,-0.10852622985839844,0.4958156239452709,-0.10473003342935314,0.28060808420649314,-0.8151426703823431,-0.595985738518333,0.13028669779755497,-2.008588910194053
1761072567876659712,0.8456597328186035,-1.1633002758026123,-0.47834497690200806,-1.2664729356765747,0.09565531462430954,0.5733951926231384,-0.8136756420135498,0.19111837446689606,0.10662800073623657,-0.3388512134552002,0.49020790502038597,-0.11192099546618921,0.28396456589693064,-0.8164153487253627,-0.6106439743948248,0.11702239515438119,-2.023186923770711
1761072567886705664,0.855705738067627,-0.9477880597114563,-0.5571318864822388,-1.4167441129684448,0.08371686935424805,0.5829532146453857,-0.8081813454627991,0.15866899490356445,0.014672517776489258,-0.2523350119590759,0.4844306014039517,-0.11829838699987621,0.28620766589860175,-0.8181795189683467,-0.6223586763075009,0.10321860423358345,-2.039211823146819
1761072567896751616,0.8657517433166504,-1.1700738668441772,-0.5656643509864807,-1.354771375656128,0.07084403187036514,0.5925571918487549,-0.8024070262908936,0.22513070702552795,-0.05959826707839966,-0.17478102445602417,0.4781778756521366,-0.1249713412081786,0.28840709596931663,-0.8200910447859631,-0.6342297279594661,0.088061054841833,-2.056905703043261
1761072567906796800,0.8757967948913574,-1.142629623413086,-0.4706901013851166,-1.2126893997192383,0.0590084046125412,0.6028317809104919,-0.7956832051277161,0.2872287929058075,-0.03323644399642944,-0.26190340518951416,0.4723055206214426,-0.13156482405357856,0.29128866075738125,-0.8214432715788974,-0.6470455854192153,0.07402516669534685,-2.073137625736665
1761072567916842752,0.8858428001403809,-1.049307107925415,-0.44843432307243347,-1.2057301998138428,0.048061732202768326,0.6121379137039185,-0.7892890572547913,0.2507816553115845,-0.04390066862106323,-0.28824079036712646,0.4663707901335032,-0.1374478307666609,0.2940468793395747,-0.8228868248516694,-0.6587614191246719,0.06081734178280123,-2.0895739330031393
1761072567926888704,0.8958888053894043,-1.0809704065322876,-0.4484786093235016,-1.1561853885650635,0.03720029070973396,0.6210137605667114,-0.7829163670539856,0.20375125110149384,-0.024654507637023926,-0.2586485743522644,0.46048379991602023,-0.14319455389432872,0.29671054310263273,-0.824264958185272,-0.6700354223040318,0.04747931674454583,-2.106125120086297
1761072567936934656,0.9059348106384277,-1.046675205230713,-0.41772255301475525,-1.0641719102859497,0.02678661420941353,0.6298164129257202,-0.776282012462616,0.18108385801315308,0.042806267738342285,-0.24221163988113403,0.45475382711873114,-0.14879442562480388,0.29953165158348577,-0.825433193305397,-0.6813168231888523,0.034492606490777594,-2.122254704835561
1761072567946980608,0.9159808158874512,-0.8478164076805115,-0.3930070996284485,-0.9768889546394348,0.0171881802380085,0.637467622756958,-0.770285427570343,0.1821373701095581,0.12296938896179199,-0.2641993761062622,0.4494395095246003,-0.15381507464198046,0.3019903889675925,-0.8265270648653866,-0.6912069880129164,0.022310337310242238,-2.1374666175037644
1761072567957025536,0.9260256290435791,-0.38414761424064636,-0.41431212425231934,-0.9165262579917908,0.008000554516911507,0.6424714922904968,-0.7662678360939026,0.19146233797073364,0.1860806941986084,-0.3002757430076599,0.44491742306013193,-0.1580871454315538,0.3031081447596176,-0.827757483019877,-0.6977191473352884,0.010440557856972402,-2.1514079282971674
1761072567967071488,0.9360716342926025,0.04679686948657036,-0.3620627820491791,-0.829303503036499,-0.0006653424934484065,0.6436361074447632,-0.7653313279151917,0.189248725771904,0.18555694818496704,-0.32591623067855835,0.44129524490448513,-0.16120793945536208,0.30223555660035073,-0.8294119115277236,-0.6992398883187821,-0.0008693520005233887,-2.163981764623213
1761072567977117440,0.946117639541626,0.2543897330760956,-0.34384703636169434,-0.7426250576972961,-0.008509790524840355,0.6423774361610413,-0.7663412094116211,0.1922866404056549,0.18776172399520874,-0.2533273696899414,0.4380586860687912,-0.16331743234214,0.3002612615130297,-0.8314296097216767,-0.6975963911093035,-0.011103984909729785,-2.175800879406556
1761072567987163648,0.9561636447906494,0.17023006081581116,-0.36799997091293335,-0.6579638719558716,-0.015694381669163704,0.6406393051147461,-0.7676815986633301,0.20755837857723236,0.1781930923461914,-0.18846464157104492,0.435411564124011,-0.16519864034653614,0.2981083751388146,-0.8332212916257772,-0.695330553688002,-0.020441020056356816,-2.185929462956701
1761072567997208576,0.9662086963653564,0.26722076535224915,-0.30823516845703125,-0.6001743078231812,-0.022381069138646126,0.6388326287269592,-0.769020140171051,0.14820504188537598,0.0061258673667907715,-0.272727906703949,0.4331411795307926,-0.16697860457788075,0.29598660351402517,-0.83480468254889,-0.6929799467889927,-0.029095145310912448,-2.194865828247866
1761072568007254528,0.9762547016143799,0.15340068936347961,-0.27386674284935,-0.6911905407905579,-0.028637325391173363,0.6368891000747681,-0.770423412322998,-0.014361955225467682,-0.2406030297279358,-0.19426774978637695,0.43094569723150244,-0.16855611688935787,0.29389986356215925,-0.836359704784816,-0.6904563484872791,-0.037153786381267165,-2.2033881035332628
1761072568017300480,0.9863007068634033,-0.29032909870147705,-0.3501063883304596,-0.8958590030670166,-0.03613593429327011,0.6369949579238892,-0.7700205445289612,-0.11489556729793549,-0.26526033878326416,0.03646951913833618,0.4278343577125271,-0.17107386516975595,0.2927856752051202,-0.837835388186715,-0.6905936939855141,-0.04689412648223275,-2.2142129884713113
1761072568027346688,0.9963467121124268,-0.9283059239387512,-0.3482729196548462,-0.9129334092140198,-0.044790852814912796,0.6413767337799072,-0.7659175992012024,-0.0465787872672081,-0.18703103065490723,0.11534386873245239,0.42387513859966175,-0.1752212305213986,0.2938345316111154,-0.838623145806655,-0.6962913418974965,-0.05841346266380003,-2.226814892259993
1761072568037392640,1.0063927173614502,-1.1400529146194458,-0.21847394108772278,-0.8379598259925842,-0.05269356444478035,0.6491662263870239,-0.7588192224502563,0.06572457402944565,-0.13645565509796143,-0.020187735557556152,0.41935033001279615,-0.17990847304706847,0.2970241436044122,-0.8387818062828438,-0.7064878169538307,-0.06933022867661226,-2.239946379984439
1761072568047437568,1.0164377689361572,-0.868613064289093,-0.13092009723186493,-0.8439956903457642,-0.05904582515358925,0.6563851833343506,-0.7521117329597473,0.04136089235544205,-0.06251317262649536,-0.1713043451309204,0.41471582403769935,-0.18364006096648627,0.30036720648426346,-0.8390867744620698,-0.7160172279402606,-0.07834602695668452,-2.2528485127669504
1761072568057483776,1.0264837741851807,-0.5712940692901611,-0.08212751150131226,-0.9196147918701172,-0.06551029533147812,0.6612854599952698,-0.7472683191299438,-0.04406305402517319,0.07897943258285522,-0.20971715450286865,0.4102054245294346,-0.18673858933182153,0.30248065215635184,-0.8398604383516078,-0.7225310701292436,-0.08744281420219736,-2.2659676838753975
1761072568067529728,1.036529779434204,-0.24532780051231384,-0.06229085847735405,-1.0384533405303955,-0.07253006100654602,0.6637263894081116,-0.7444505095481873,-0.05517073720693588,0.17025798559188843,-0.11495494842529297,0.40556723622838414,-0.18928786714906723,0.30322407657639866,-0.8412730404499105,-0.7257897937455108,-0.09712111788336929,-2.2800649193268128
1761072568077575680,1.0465757846832275,0.030264632776379585,-0.01896122843027115,-1.0801994800567627,-0.08002006262540817,0.6635341644287109,-0.743854284286499,-0.055737391114234924,0.12816810607910156,-0.11951851844787598,0.4007327193161097,-0.19117971087863977,0.30252796215757444,-0.8434100155176651,-0.7255328111478017,-0.10716280311869127,-2.2951859925811733
1761072568087620608,1.0566205978393555,-0.02809041738510132,0.02572008967399597,-1.1048126220703125,-0.08714823424816132,0.6625162363052368,-0.7439606189727783,-0.04754108935594559,0.08418786525726318,-0.12333369255065918,0.39599245060579386,-0.19269399295756612,0.3014775463967383,-0.845677369120401,-0.7241730034773796,-0.11660948725242946,-2.30994473024465
1761072568097666560,1.066666603088379,-0.16711781919002533,0.01553669385612011,-1.118531346321106,-0.09446731954813004,0.6622512340545654,-0.7433028817176819,-0.052917301654815674,0.0008804202079772949,-0.09931790828704834,0.3912272824207684,-0.19455630933562185,0.30082618579973025,-0.8476983987213798,-0.7238192959584624,-0.12641357470267933,-2.3247251999458265
1761072568107712512,1.0767126083374023,-0.4432525038719177,0.05877527594566345,-1.0763200521469116,-0.10151918977499008,0.6633230447769165,-0.7414150834083557,-0.07615413516759872,-0.13141697645187378,-0.07308375835418701,0.38654066259152614,-0.1967483864666508,0.30096930928687543,-0.8492901709325533,-0.7252506799145534,-0.1360800157765512,-2.339060108982279
1761072568117758464,1.0867586135864258,-0.7303042411804199,0.09952617436647415,-1.0772383213043213,-0.1080280989408493,0.6667260527610779,-0.7374322414398193,-0.10080369561910629,-0.06359189748764038,-0.043848276138305664,0.381473405839009,-0.19926315181392576,0.30261869447114065,-0.8504082749312871,-0.7298073572920726,-0.14545761872582424,-2.353903542808644
1761072568127804416,1.0968046188354492,-0.6545072793960571,0.08154483884572983,-1.114549160003662,-0.11475041508674622,0.6706637144088745,-0.7328318357467651,-0.09893365204334259,0.01907932758331299,-0.07783710956573486,0.3761769538096884,-0.20197484530612972,0.30461492860623113,-0.8514145492035825,-0.7351032260814756,-0.15532366447897164,-2.369431358510026
1761072568137849600,1.1068496704101562,-0.6286447644233704,0.1010732650756836,-1.0586907863616943,-0.12148307263851166,0.674065113067627,-0.7286138534545898,-0.09932687133550644,0.004615306854248047,-0.09536075592041016,0.37079678028709806,-0.20450476009795943,0.30638354304513765,-0.8525355041769105,-0.7396983337076121,-0.16521201677065667,-2.3852582633530606
1761072568147895552,1.1168956756591797,-0.5659444332122803,0.07898767292499542,-1.0011334419250488,-0.12772774696350098,0.6771035194396973,-0.7247181534767151,-0.09498952329158783,0.0010581016540527344,-0.030088365077972412,0.36569007872433384,-0.20678059201879154,0.30803037052709875,-0.8535981318575732,-0.7438194356398997,-0.17445315034610856,-2.4002757746192627
1761072568157941504,1.1269416809082031,-0.6451814770698547,0.07637138664722443,-0.8753057718276978,-0.13363751769065857,0.6802119612693787,-0.7207306623458862,-0.07719317078590393,-0.021154344081878662,-0.02099907398223877,0.36100456448832846,-0.20906396227986776,0.3097207064290721,-0.8544244009217925,-0.7480517403787174,-0.18333735389832592,-2.4142010707996335
1761072568167987712,1.1369876861572266,-0.5508400797843933,0.09039192646741867,-0.7676070928573608,-0.13858386874198914,0.6835742592811584,-0.7166036367416382,-0.08959606289863586,0.06807368993759155,-0.09565222263336182,0.3568617113343924,-0.21112895742875298,0.31164523524910104,-0.8549570406098185,-0.7526485180645176,-0.19103165117413784,-2.4264374988416857
1761072568178033664,1.14703369140625,-0.3506867289543152,0.09357733279466629,-0.7739006876945496,-0.14320817589759827,0.6856527924537659,-0.7137028574943542,-0.10712753236293793,0.09361356496810913,-0.13149672746658325,0.35305369974280576,-0.21276380810856016,0.31285801739968744,-0.8556895621035979,-0.755500082857111,-0.19802546859998427,-2.4377530051740286
1761072568188078592,1.157078742980957,-0.23541124165058136,0.134148970246315,-0.754940927028656,-0.14770761132240295,0.6865679621696472,-0.7119037508964539,-0.09849298000335693,0.10461550951004028,-0.14016228914260864,0.3494270940120313,-0.21405375295794216,0.3134152437558687,-0.8566520281095178,-0.7567580821353759,-0.20457986018519697,-2.44856615352375
1761072568198124544,1.1671247482299805,-0.226823091506958,0.1740785390138626,-0.6932640075683594,-0.15156221389770508,0.6871415376663208,-0.7105388045310974,-0.07702971994876862,0.0832899808883667,-0.1764393448829651,0.3459490341229949,-0.21496472163422845,0.31388017715203276,-0.8576646770262872,-0.7575472831231398,-0.2101564677544103,-2.458691129063257
1761072568208170752,1.177170753479004,-0.30046311020851135,0.20748242735862732,-0.7249407172203064,-0.15503130853176117,0.6878135204315186,-0.709138810634613,-0.05274759232997894,-0.01404649019241333,-0.13310056924819946,0.3424928535715948,-0.21571554393753925,0.3144795821774362,-0.8586431044059922,-0.7584725812968632,-0.21523280759039773,-2.468572791396079
1761072568218216704,1.1872167587280273,-0.5836830735206604,0.2713719606399536,-0.7798728942871094,-0.15858730673789978,0.6897446513175964,-0.7064718008041382,-0.007153645157814026,-0.09729164838790894,-0.049494385719299316,0.33845630833329,-0.21667451877237529,0.3159371178343571,-0.8594668473042636,-0.7611363571198752,-0.2208174554944498,-2.4799413259219634
1761072568228262656,1.1972627639770508,-0.639248251914978,0.3694715201854706,-0.9141276478767395,-0.1621471792459488,0.6928797364234924,-0.7025852203369141,0.02181209623813629,-0.11785233020782471,-0.09285545349121094,0.33368998098980335,-0.21771948306821742,0.3182854442993941,-0.8601997862379461,-0.7654752573829307,-0.22681524054152694,-2.493134279315793
1761072568238307840,1.2073078155517578,-0.48551568388938904,0.44978925585746765,-1.0248112678527832,-0.16612228751182556,0.6952357888221741,-0.6993215680122375,0.042190372943878174,-0.2068324089050293,-0.15735262632369995,0.3282023997171704,-0.21848093729196005,0.32032059541007707,-0.8613617782844213,-0.7687478637749782,-0.23322501458527858,-2.5082009645013703
1761072568248353536,1.2173535823822021,-0.3912949860095978,0.5048075914382935,-0.9100136160850525,-0.16962692141532898,0.6966353058815002,-0.6970838308334351,0.06893420219421387,-0.22013390064239502,-0.18180710077285767,0.322760629216334,-0.21872522873029904,0.3218964902668297,-0.8627672939772317,-0.7706968039772835,-0.23869869002898278,-2.5228395982063927
1761072568258399488,1.2273995876312256,-0.31180068850517273,0.44673147797584534,-0.7046282291412354,-0.17188914120197296,0.697756826877594,-0.6954059600830078,0.05117689073085785,-0.07118523120880127,-0.10450547933578491,0.3180877811259238,-0.21850982997437518,0.3233426354333017,-0.8640156532557871,-0.7722612188849189,-0.24232101659849378,-2.535005409898604
1761072568268445440,1.237445592880249,0.046301357448101044,0.3546414077281952,-0.7266924977302551,-0.17388883233070374,0.6977732181549072,-0.694892168045044,-0.012176811695098877,0.080852210521698,-0.02472752332687378,0.3140863071460933,-0.21808599226678935,0.32402531296574716,-0.865329912106778,-0.7722841530853446,-0.24520319836556367,-2.5453397741338764
1761072568278491392,1.2474915981292725,0.05297151207923889,0.25695881247520447,-0.6204882860183716,-0.17653146386146545,0.6961020827293396,-0.6959012150764465,-0.08488209545612335,0.11458206176757812,0.06987893581390381,0.3106143999136269,-0.2177306962343405,0.32348529250490415,-0.8668732595137303,-0.7699538118848825,-0.24843274966811305,-2.554563472405323
1761072568288536576,1.2575366497039795,-0.051287416368722916,0.15549598634243011,-0.33085179328918457,-0.1783892810344696,0.695313036441803,-0.6962162256240845,-0.1608441323041916,0.11149543523788452,0.11835062503814697,0.3082371533140699,-0.21761947888407587,0.3233166292627071,-0.8678121935664194,-0.7688553744262429,-0.2508305680407517,-2.560935048102537
1761072568298582528,1.267582654953003,-0.194938063621521,0.11743462830781937,-0.29421335458755493,-0.1793919950723648,0.695625364780426,-0.6956464052200317,-0.2551630735397339,0.12749475240707397,0.16824162006378174,0.30664866812499736,-0.21765303724638174,0.32373436313367476,-0.8682107637963852,-0.7692899981944675,-0.25237951287562926,-2.565175176793666
1761072568308628480,1.2776286602020264,-0.46071094274520874,0.02573193982243538,-0.3580645024776459,-0.1812593936920166,0.697252631187439,-0.6935299634933472,-0.2996976375579834,0.14526140689849854,0.21843230724334717,0.30464268293321545,-0.21836151685917088,0.3248896086388186,-0.8683074856021893,-0.7715576330070106,-0.2556393613586059,-2.571032165668872
1761072568318674688,1.2876746654510498,-1.0600230693817139,0.07593279331922531,-0.1955466866493225,-0.18293070793151855,0.7018482685089111,-0.6884368658065796,-0.26052019000053406,0.08098858594894409,0.15946048498153687,0.3024894615851531,-0.21973652670337362,0.32786802231130974,-0.8675934669600355,-0.777988894297009,-0.25971737641622294,-2.5775964719855797
1761072568328719616,1.2977197170257568,-1.782204031944275,0.15647248923778534,-0.09696216136217117,-0.1830763816833496,0.7114846706390381,-0.678433895111084,-0.217863529920578,0.05246180295944214,0.07246166467666626,0.30010452247938463,-0.22162276353389823,0.3341652352666492,-0.8655369355651067,-0.7916087938242418,-0.2635733849647987,-2.5847464044712054
1761072568338765568,1.3077657222747803,-2.1064627170562744,0.28075501322746277,-0.09393680840730667,-0.18224838376045227,0.7246198654174805,-0.6646139025688171,-0.20282241702079773,0.05728626251220703,-0.06818944215774536,0.2968059250652612,-0.22365133185459793,0.34303518057102794,-0.8626779337050643,-0.8104826006616134,-0.2676380625244856,-2.5942355851815386
1761072568348811520,1.3178117275238037,-2.081791639328003,0.32571378350257874,-0.13214677572250366,-0.18101760745048523,0.7384421229362488,-0.6495659351348877,-0.18151596188545227,0.10045558214187622,-0.1206824779510498,0.2931341828173784,-0.22554986318563106,0.35262487066130704,-0.8595669498001502,-0.8307571157895788,-0.27177936104345296,-2.6047411093969317
1761072568358857728,1.3278577327728271,-1.826108694076538,0.24271342158317566,-0.09201852977275848,-0.1799643486738205,0.7508218884468079,-0.6355149149894714,-0.1305672526359558,0.14351099729537964,-0.1278822422027588,0.2898083135754007,-0.22729994342297574,0.36135476258741833,-0.8566029052729643,-0.8493055602446954,-0.27595395858077865,-2.614533873276508
1761072568368903680,1.3379037380218506,-1.518387794494629,0.1265975385904312,-0.03917209804058075,-0.1792835146188736,0.7614734172821045,-0.6229091286659241,-0.0660015344619751,0.126084566116333,-0.09248393774032593,0.2872393631979876,-0.2290914431190507,0.36886657596698397,-0.853784659972736,-0.8655831809519453,-0.28024212905626117,-2.6226646207781323
1761072568378948608,1.3479487895965576,-1.5065609216690063,0.04268958419561386,-0.004309719894081354,-0.1788758933544159,0.770699679851532,-0.6115760803222656,-0.010546684265136719,0.05701327323913574,0.0561714768409729,0.28504005288406037,-0.2307923004552212,0.3754289056499891,-0.8511991906747307,-0.8799384493066328,-0.28454669183324655,-2.629984588763184
1761072568388994816,1.357994794845581,-1.3356504440307617,-0.056109096854925156,0.0029297289438545704,-0.17905934154987335,0.7796303629875183,-0.600095272064209,0.018216431140899658,-0.01618736982345581,0.15710210800170898,0.28331871727621527,-0.2329844530614085,0.3816681907871141,-0.8483974367522092,-0.8940753189129333,-0.28997435200831917,-2.6367594380460164
1761072568399040768,1.3680408000946045,-1.4124152660369873,-0.09376540035009384,-0.012513942085206509,-0.1794496476650238,0.7877745032310486,-0.5892444849014282,0.03494894504547119,-0.10334157943725586,0.1668354868888855,0.28194369559137195,-0.23524406178755872,0.3873473585017566,-0.8456535332193984,-0.9071875412276551,-0.29561846400399244,-2.6428827084435773
1761072568409086720,1.378086805343628,-1.4172757863998413,0.0008816523477435112,0.022667746990919113,-0.1797562688589096,0.7962169647216797,-0.5776903629302979,0.035240307450294495,-0.06564146280288696,0.13242369890213013,0.2803958214118792,-0.23752765687635297,0.39336424780522755,-0.8427474587553523,-0.921016401223077,-0.30166700195763957,-2.649714440885249
1761072568419132672,1.3881328105926514,-1.379567265510559,0.025311361998319626,-0.028398899361491203,-0.17960549890995026,0.8042857646942139,-0.5664505958557129,0.05114173889160156,-0.029841184616088867,-0.00847005844116211,0.2787268537535964,-0.23941889260619736,0.39931601718741216,-0.8399623180157363,-0.9344725626031485,-0.307044458643828,-2.6566087517250283
1761072568429177600,1.3981776237487793,-1.3505630493164062,-0.004324527457356453,-0.06346172094345093,-0.1799778789281845,0.8119363784790039,-0.55530846118927,0.09623761475086212,-0.0077370405197143555,-0.009617745876312256,0.2767664975761751,-0.2413735994772425,0.40507353120001144,-0.8372900893924179,-0.947461628019299,-0.31342160035349426,-2.6647619579363546
1761072568439224320,1.40822434425354,-1.265777587890625,-0.026948347687721252,-0.04310239106416702,-0.18050317466259003,0.8190953135490417,-0.5445194244384766,0.11785061657428741,-0.03758597373962402,-0.05035966634750366,0.27480476546121113,-0.24328554580085776,0.410551365572041,-0.8347107365264593,-0.9598322001222245,-0.32009133625755387,-2.673154207291547
1761072568449270272,1.4182703495025635,-1.1742274761199951,-0.036819785833358765,-0.04312609136104584,-0.18101833760738373,0.8256903886795044,-0.5342917442321777,0.09151029586791992,-0.06058424711227417,-0.01961749792098999,0.27320307163654356,-0.2452070176964189,0.4156051538864332,-0.8321693803727849,-0.9714249295202648,-0.32666294638335514,-2.680717321763361
1761072568459316224,1.428316354751587,-1.008070468902588,-0.09209582209587097,-0.061644647270441055,-0.18174798786640167,0.8314760327339172,-0.5249906778335571,0.06352292001247406,-0.03083217144012451,-0.027560532093048096,0.27153496930443594,-0.2469594152858196,0.4201377356369483,-0.8299180659878337,-0.9817592532235633,-0.3332790856766626,-2.6885119150319743
1761072568469361408,1.438361406326294,-0.7010186910629272,-0.23481866717338562,-0.032285694032907486,-0.18299375474452972,0.8358955383300781,-0.5174860954284668,0.07500731945037842,-0.0372505784034729,0.004882395267486572,0.27035100007977025,-0.2487744129766518,0.42351888778588176,-0.8280418713822612,-0.989762365764329,-0.33989666860169265,-2.6951202292453234
1761072568479407360,1.4484074115753174,-0.31268155574798584,-0.3565802574157715,-0.01545984297990799,-0.1846635639667511,0.8385385274887085,-0.5125938653945923,0.1466081291437149,-0.017722487449645996,0.060155510902404785,0.2701478521823276,-0.2506805145547017,0.4252791340063641,-0.8266299589285674,-0.9945953260007542,-0.34577966714240227,-2.6988798929025757
1761072568489453312,1.4584534168243408,0.0005524116568267345,-0.5362428426742554,-0.06485464423894882,-0.18730959296226501,0.839016318321228,-0.5108490586280823,0.19324524700641632,0.015994668006896973,0.07386791706085205,0.2706628693404091,-0.2527028133378592,0.42510792165811795,-0.8259335371201775,-0.9954728046032296,-0.35144180126773905,-2.700595519784981
1761072568499499264,1.4684994220733643,0.19662152230739594,-0.5485144257545471,-0.09290917962789536,-0.19075322151184082,0.838316798210144,-0.5107232928276062,0.19554448127746582,-0.023344874382019043,0.052456021308898926,0.2714859399900833,-0.2548990116447998,0.4238689211424072,-0.8256252657591363,-0.9941884100121651,-0.3574516626495693,-2.7016158699706008
1761072568509545216,1.4785454273223877,0.09329207241535187,-0.5292154550552368,-0.14770664274692535,-0.1945197582244873,0.8373324275016785,-0.5109173059463501,0.1341254562139511,-0.11298245191574097,0.0764385461807251,0.2722158375166732,-0.25712870440030233,0.42240521156393174,-0.8254436997461108,-0.9923854162472846,-0.36378167560197094,-2.702979096982415
1761072568519590144,1.4885902404785156,0.030012698844075203,-0.45437395572662354,-0.12208916991949081,-0.19824814796447754,0.8368223309516907,-0.5103194713592529,0.04564501345157623,-0.11755359172821045,0.036976635456085205,0.27274959850962244,-0.2594251149979036,0.4213536063088839,-0.8250862733139064,-0.9914530060217145,-0.3705347559291855,-2.705075313578268
1761072568529636096,1.498636245727539,0.0255899541079998,-0.3545357286930084,-0.07096970081329346,-0.20107799768447876,0.83649742603302,-0.5097447037696838,-0.018556997179985046,-0.07075035572052002,-0.005208909511566162,0.27330180533856085,-0.2612701384293067,0.4205538853627279,-0.8247292984598558,-0.9908597810960638,-0.3757283943460706,-2.7063449047181636
1761072568539682048,1.5086822509765625,0.030901893973350525,-0.26477229595184326,-0.13066978752613068,-0.20343096554279327,0.8361887335777283,-0.5093175172805786,-0.04719465970993042,0.02452903985977173,0.010583996772766113,0.27354467469275373,-0.26268010709027867,0.41992904356586863,-0.8245193740292867,-0.9902967274926517,-0.3800052003772345,-2.707894029329823
1761072568549728256,1.518728256225586,0.21861869096755981,-0.22035519778728485,-0.1720791906118393,-0.20596668124198914,0.8353089094161987,-0.5097418427467346,-0.07070568203926086,0.04228508472442627,-0.0795830488204956,0.2735194166218662,-0.2638364513349917,0.4189503539976632,-0.8246563226886741,-0.9886944079273161,-0.3840021248469157,-2.7098656745494774
1761072568559774208,1.5287742614746094,0.37377312779426575,-0.21892507374286652,-0.16611771285533905,-0.20848023891448975,0.833401620388031,-0.5118376612663269,-0.06848205626010895,-0.004345834255218506,-0.17099320888519287,0.27367619984798575,-0.26466352538045834,0.4171742940836607,-0.8252394853232577,-0.9852343214016912,-0.3867982689929046,-2.7106289093287916
1761072568569819136,1.5388193130493164,0.39325591921806335,-0.23958177864551544,-0.1660102903842926,-0.21101100742816925,0.8310545086860657,-0.5146094560623169,-0.04043860733509064,-0.020934879779815674,-0.1424034833908081,0.2740395802210292,-0.2654334676731637,0.4150184743191099,-0.8259583514374078,-0.9810009423872116,-0.38913235659392736,-2.7105816129688143
1761072568579865344,1.5488653182983398,0.21105681359767914,-0.31658655405044556,-0.18713901937007904,-0.2138736993074417,0.82906174659729,-0.516637921333313,-0.0018855929374694824,-0.02750229835510254,0.01894199848175049,0.27424410657513915,-0.26646621471743187,0.41313047602776504,-0.8265042026102036,-0.9774275782321498,-0.3924929733771622,-2.7114729238886905
1761072568589911296,1.5589113235473633,0.007973343133926392,-0.4089280664920807,-0.10444200038909912,-0.21703021228313446,0.8281905055046082,-0.5167190432548523,0.04576553404331207,-0.031300246715545654,0.03292381763458252,0.27446714637606573,-0.26812918511021705,0.4120039139509002,-0.8264547612618297,-0.9758712600876989,-0.3976415036414596,-2.7133689165377426
1761072568599957248,1.5689573287963867,-0.14090029895305634,-0.44354304671287537,0.015453776344656944,-0.21956942975521088,0.8285561203956604,-0.5150572061538696,0.06498266756534576,-0.049656033515930176,-0.057360947132110596,0.27502666081609334,-0.2700808627306425,0.41173743389373635,-0.8257656133539668,-0.9765239253171899,-0.40297213057644216,-2.7147303960374507
1761072568610002176,1.5790023803710938,0.04049639776349068,-0.3763541579246521,0.016028042882680893,-0.2214502990245819,0.8288486003875732,-0.5137798190116882,0.01733347773551941,-0.06027865409851074,-0.12046700716018677,0.2758653091251803,-0.27174956669913164,0.4114149567604298,-0.8250988895792329,-0.9770465355511404,-0.4069600951681874,-2.7147351233377552
1761072568620048384,1.5890483856201172,0.1597418338060379,-0.3286742568016052,-0.05125938728451729,-0.22349666059017181,0.8282690048217773,-0.5138285756111145,-0.06176641583442688,-0.06885433197021484,-0.111705482006073,0.276642051718832,-0.2731392641346281,0.4104639551519044,-0.8248536503237106,-0.9760113397457609,-0.4102794377941875,-2.714407976370902
1761072568630094336,1.5990943908691406,0.28013595938682556,-0.2098536491394043,-0.020579947158694267,-0.22518357634544373,0.8270482420921326,-0.515056848526001,-0.11255446076393127,-0.03613942861557007,-0.20102286338806152,0.2773782688908747,-0.2740338342040948,0.40911736816925826,-0.8249786116410623,-0.9738361599336268,-0.41215975863952886,-2.7133488303856623
1761072568640140288,1.609140396118164,0.2778102159500122,-0.1467982530593872,-0.04958176985383034,-0.22629302740097046,0.8254998922348022,-0.5170506238937378,-0.13625580072402954,-0.012587904930114746,-0.1570674180984497,0.27811341530578,-0.27444713702147444,0.407619249485171,-0.8253352358152475,-0.9710873782958104,-0.4125457706657069,-2.7114934150177317
1761072568650186240,1.6191864013671875,0.08818036317825317,-0.13072101771831512,-0.09239714592695236,-0.22761563956737518,0.8243217468261719,-0.5183482766151428,-0.1234128475189209,0.014194607734680176,-0.06967973709106445,0.27851296826541766,-0.274971331356072,0.4064684899129014,-0.8255935909901754,-0.969003042329175,-0.4137670335754813,-2.7109260498748706
1761072568660231168,1.6292312145233154,-0.09364775568246841,-0.10865087062120438,-0.11664123088121414,-0.22906920313835144,0.8240820169448853,-0.5180889964103699,-0.08517031371593475,0.002425551414489746,-0.0471423864364624,0.2784261489624614,-0.27571026636317864,0.40612726945290434,-0.8255443555798414,-0.9685798034306584,-0.4163005239262482,-2.7123417264769962
1761072568670277120,1.6392772197723389,-0.3065003454685211,-0.14099524915218353,-0.15538382530212402,-0.23087327182292938,0.8248730301856995,-0.5160253643989563,-0.03859695792198181,-0.06788450479507446,0.012286901473999023,0.27788254339852714,-0.2768501463582919,0.40662184791230027,-0.8251024942826142,-0.9699775948402087,-0.4206953606693512,-2.7159635169948797
1761072568680323072,1.6493232250213623,-0.30288323760032654,-0.18869753181934357,-0.10420693457126617,-0.23284471035003662,0.8262115716934204,-0.5129891633987427,0.003962859511375427,-0.08323061466217041,-0.014186739921569824,0.27731854797126043,-0.27830627128141733,0.40749358737019076,-0.8243719503527679,-0.9723493974365623,-0.42609067538459866,-2.7202407707963996
1761072568690369024,1.6593692302703857,-0.1815052479505539,-0.21376922726631165,-0.055332958698272705,-0.2344948649406433,0.8273265361785889,-0.5104341506958008,0.013257667422294617,-0.0013072490692138672,-0.04628276824951172,0.2771810002734689,-0.27969390569626496,0.40811057739816975,-0.8236430056813361,-0.9743314215537777,-0.4306457008009276,-2.72304172261621
1761072568700415232,1.6694152355194092,0.056557923555374146,-0.22985391318798065,-0.04313754290342331,-0.23603802919387817,0.8275364637374878,-0.5093815326690674,0.006622090935707092,0.08649557828903198,-0.07206994295120239,0.277429953423991,-0.2808429820944646,0.4079662520457403,-0.8232396405381858,-0.9747053289509869,-0.43392619763450313,-2.7241037769268175
1761072568710460160,1.6794602870941162,0.2861456274986267,-0.185002863407135,-0.027617350220680237,-0.2373729944229126,0.8265542387962341,-0.5103549361228943,-0.0325702428817749,0.01617342233657837,-0.12300688028335571,0.2780593026867617,-0.28156673707136004,0.406869399978946,-0.8233228222517253,-0.9729579437844172,-0.43535104062656566,-2.7230854932486794
1761072568720506112,1.6895062923431396,0.20603559911251068,-0.18554455041885376,-0.0369594544172287,-0.23854878544807434,0.8251944184303284,-0.5120044946670532,-0.08559364080429077,-0.051055073738098145,-0.064808189868927,0.2786925837797315,-0.28204059987509394,0.40552540414114613,-0.8236095022920379,-0.9705462755631739,-0.43600687684322303,-2.7216013131130774
1761072568730552320,1.699552297592163,0.1772667020559311,-0.18182587623596191,-0.044393930584192276,-0.23981735110282898,0.8240626454353333,-0.5132333040237427,-0.09465532004833221,-0.06029921770095825,-0.041881442070007324,0.27918635934934904,-0.2825950496251449,0.40438025241986886,-0.8238152900916251,-0.9685455408660701,-0.4371205978949962,-2.7207254288950464
1761072568740598272,1.7095983028411865,0.19217880070209503,-0.21710264682769775,-0.05286385118961334,-0.24121694266796112,0.8230530619621277,-0.5141964554786682,-0.06383676826953888,-0.08068251609802246,-0.02590358257293701,0.279614247054894,-0.28324663660474614,0.40332753532762056,-0.8239624608884947,-0.9667657586986406,-0.43863521944856293,-2.720228021233489
1761072568750644224,1.71964430809021,0.17704305052757263,-0.3022032380104065,-0.02303547039628029,-0.2428891956806183,0.8219506740570068,-0.5151718258857727,-0.03402732312679291,-0.07829833030700684,0.009037792682647705,0.28023086504104655,-0.2841185845679669,0.4021078356238255,-0.8240489647537118,-0.9648275088089748,-0.44056603295223057,-2.7194540506807323
1761072568760689152,1.729689359664917,0.06929448992013931,-0.3620585799217224,-0.009350284934043884,-0.24470464885234833,0.8213077187538147,-0.515338122844696,-0.025314882397651672,-0.0607333779335022,0.045199573040008545,0.2809667563924731,-0.28532229649791657,0.40115101254911373,-0.8238487809541253,-0.9636995190643672,-0.4433201722900719,-2.7188801641754767
1761072568770735360,1.7397353649139404,0.002581107895821333,-0.394823282957077,-0.03269147127866745,-0.24683059751987457,0.8210089206695557,-0.514799952507019,-0.024394378066062927,-0.07029181718826294,0.03715413808822632,0.28160787673887266,-0.28680967028652676,0.40042505742699597,-0.8234664698628982,-0.963176014692346,-0.4470882632381553,-2.719095566273744
1761072568780781312,1.7497813701629639,-0.11558441817760468,-0.4336774945259094,0.00592782674357295,-0.24910031259059906,0.8213033080101013,-0.5132347345352173,0.004303574562072754,-0.05465596914291382,0.039189934730529785,0.2822865818900661,-0.28864810961760484,0.4000811347195268,-0.8227585164366423,-0.9636917932259838,-0.4518619772661999,-2.719829412361053
1761072568790827264,1.7598273754119873,-0.0881509929895401,-0.42290812730789185,0.00905286893248558,-0.25122976303100586,0.8218813538551331,-0.5112676620483398,0.016244441270828247,-0.022488713264465332,-0.02394956350326538,0.2830622776726777,-0.2905691915335157,0.3999196190081084,-0.8218938812955843,-0.9647057503353648,-0.456732663390715,-2.7204361413923634
1761072568800872448,1.7698724269866943,-0.019412942230701447,-0.41284456849098206,-0.009317349642515182,-0.25336208939552307,0.8221496343612671,-0.5097818970680237,-0.003519594669342041,-0.00513303279876709,-0.06616103649139404,0.28385589063826466,-0.29237658150320417,0.39953094964770314,-0.8211678953490508,-0.9651768553719476,-0.4612454977127503,-2.7207587343296975
1761072568810918400,1.7799184322357178,0.021611422300338745,-0.4200497269630432,0.0179337989538908,-0.25548213720321655,0.8221268653869629,-0.508759617805481,0.005451619625091553,0.0007796287536621094,-0.06895339488983154,0.2847485504771334,-0.29410556548563327,0.39890110715282545,-0.8205474934633004,-0.9651369215524811,-0.46537945447672496,-2.7205893040680564
1761072568820964352,1.7899644374847412,0.054223693907260895,-0.46011191606521606,0.05367715284228325,-0.25743064284324646,0.8220325112342834,-0.507929265499115,0.028960764408111572,-0.016734659671783447,-0.07977825403213501,0.2858649111812137,-0.2958090479753787,0.3981612377667678,-0.819906121184836,-0.9649712170629817,-0.46909173661587245,-2.7196495405229957
1761072568831010048,1.8000102043151855,0.04699154570698738,-0.48891234397888184,0.09147699177265167,-0.25921759009361267,0.821946382522583,-0.5071590542793274,0.024293333292007446,-0.03352481126785278,-0.08038055896759033,0.2872533065967774,-0.2975493395147619,0.3973472889199049,-0.8191855492634362,-0.964819946435578,-0.47250157867124704,-2.717896312327057
1761072568841056000,1.810056209564209,0.08398845046758652,-0.47758591175079346,0.0480235256254673,-0.26101985573768616,0.8217865228652954,-0.5064932703971863,-0.011242717504501343,-0.04091799259185791,-0.07773518562316895,0.2885121139804781,-0.2992051519420322,0.39652191414542276,-0.8185397222621367,-0.9645392963596111,-0.47584977348575536,-2.7164076046674137
1761072568851101184,1.820101261138916,0.06546036899089813,-0.44899776577949524,-0.000977750401943922,-0.2632010579109192,0.8214734792709351,-0.5058719515800476,-0.030271202325820923,-0.037431180477142334,-0.08757281303405762,0.2894661098204522,-0.30088260226164304,0.39564337309390973,-0.8180129999886434,-0.9639901608120487,-0.4797490032986027,-2.71588961097144
1761072568861147136,1.8301472663879395,0.1230245977640152,-0.4606642723083496,-0.008883344009518623,-0.26557812094688416,0.8209848403930664,-0.5054226517677307,0.0029438436031341553,-0.011857032775878906,-0.11919581890106201,0.2904451622457702,-0.3026185283000741,0.3946019405761337,-0.8175285276464463,-0.9631338390509068,-0.4838055476737096,-2.7153384175176623
1761072568871193088,1.840193271636963,0.1500568836927414,-0.47134339809417725,0.04466678947210312,-0.2677842080593109,0.820309579372406,-0.5053551197052002,0.023841947317123413,-0.017956674098968506,-0.1205146312713623,0.29166220421580513,-0.3042823285268782,0.3933633221501522,-0.8170744785587389,-0.9619520944628355,-0.4872751653565512,-2.7138693259648394
1761072568881239296,1.8502392768859863,0.0993574857711792,-0.48945796489715576,0.07934247702360153,-0.2696745693683624,0.8198333978652954,-0.5051226019859314,-0.006295889616012573,0.04227292537689209,-0.0716748833656311,0.2930633505137377,-0.30592384238155795,0.39223629126422194,-0.8165017739561244,-0.9611199842839557,-0.49038238653379973,-2.7118164158608926
1761072568891284224,1.8602843284606934,0.09180143475532532,-0.5069404244422913,0.05162687227129936,-0.271647185087204,0.8195371031761169,-0.504546046257019,-0.03992202877998352,0.10307031869888306,-0.04008591175079346,0.29441243818591073,-0.3076692170602611,0.39123732491344293,-0.8158395858523692,-0.960602705169998,-0.4938930593356972,-2.710122448402984
1761072568901330176,1.8703303337097168,0.07835220545530319,-0.4978893995285034,0.07041467726230621,-0.27373936772346497,0.8192341923713684,-0.5039068460464478,-0.059665143489837646,0.06547039747238159,-0.037154555320739746,0.2958003904547255,-0.3095046144341111,0.39019671181154586,-0.815141419704174,-0.9600742935121299,-0.4976338315566449,-2.708435309969501
1761072568911376128,1.8803763389587402,0.051761068403720856,-0.4383464455604553,0.050769954919815063,-0.27555355429649353,0.8190978765487671,-0.5031390190124512,-0.08560672402381897,0.02893984317779541,-0.05850648880004883,0.2971223490925337,-0.31120870169386483,0.3893322746885485,-0.8144248340792559,-0.9598366405136576,-0.5010516480185281,-2.7067910116299627
1761072568921422336,1.8904223442077637,0.09887159615755081,-0.3783462345600128,-0.005596115253865719,-0.2774404287338257,0.8187766671180725,-0.5026246309280396,-0.10544833540916443,0.01240009069442749,-0.06727588176727295,0.29822341279462444,-0.31277090542933983,0.3884096319431353,-0.8138642670614769,-0.9592769220403751,-0.5043646678572345,-2.7055868786886843
1761072568931468288,1.900468349456787,0.18596801161766052,-0.32505330443382263,-0.035504214465618134,-0.27937209606170654,0.8179921507835388,-0.5028321146965027,-0.08628952503204346,-0.012556970119476318,-0.08225095272064209,0.29916697507311246,-0.314079160602512,0.3872185857070092,-0.8135817013508484,-0.9579117611772623,-0.507130304266911,-2.7043845084920335
1761072568941513216,1.9105134010314941,0.27941831946372986,-0.3224194347858429,-0.023398282006382942,-0.2812686264514923,0.8166849613189697,-0.5038985013961792,-0.04516267776489258,-0.0058939456939697266,-0.0846177339553833,0.3000725003297253,-0.31511304030456455,0.3856870594969885,-0.8135759509761631,-0.9556429551208253,-0.5091055877317444,-2.7027593905460523
1761072568951559424,1.9205594062805176,0.33467555046081543,-0.3211028575897217,0.0835217759013176,-0.28267866373062134,0.815176248550415,-0.5055496692657471,-0.013967454433441162,0.03475356101989746,-0.10762476921081543,0.30133206629788645,-0.31591856066694424,0.3839539250711284,-0.8136177852114913,-0.9530334558902794,-0.5098418384269165,-2.6996220933959205
1761072568961605376,1.930605411529541,0.39112868905067444,-0.2967338562011719,0.13777728378772736,-0.28330403566360474,0.813615083694458,-0.5077099800109863,-0.02716657519340515,0.05384707450866699,-0.10123777389526367,0.3030049585950002,-0.3164020770367562,0.3821449069706183,-0.8136603242118082,-0.9503432065183872,-0.5089672757663194,-2.6946989960335435
1761072568971651328,1.9406514167785645,0.3409067392349243,-0.2672818899154663,0.13413222134113312,-0.2836548388004303,0.8120858669281006,-0.5099573731422424,-0.0561278760433197,0.020021677017211914,-0.058615684509277344,0.3046867311489723,-0.3167295806704439,0.380399391695595,-0.813722764838459,-0.9477178346299342,-0.5076156337851067,-2.689546481133863
1761072568981697280,1.950697422027588,0.2305850088596344,-0.2679532766342163,0.16806542873382568,-0.2838115692138672,0.810971200466156,-0.5116411447525024,-0.04588508605957031,-0.025891244411468506,-0.02246224880218506,0.3062516822416265,-0.3170628798982173,0.37901259738001963,-0.8136525635312074,-0.9458101778263501,-0.5064507799516204,-2.6848794571511223
1761072568991742208,1.9607422351837158,0.1456722468137741,-0.2876175045967102,0.20975951850414276,-0.28367674350738525,0.8105481266975403,-0.512385904788971,-0.0010828077793121338,-0.04678469896316528,0.0030017495155334473,0.30780412783329175,-0.31751356324722574,0.378143077577115,-0.8132955397341434,-0.945087405038572,-0.5056326435087906,-2.6805781530414694
1761072569001788160,1.9707882404327393,0.15640293061733246,-0.29965847730636597,0.21062716841697693,-0.28346651792526245,0.8103631734848022,-0.512794554233551,0.014774501323699951,-0.017943739891052246,-0.008567750453948975,0.3094479585902006,-0.3180643418318053,0.37740931730112526,-0.8127971899211006,-0.9447717001662085,-0.5049809505038706,-2.676186846768857
1761072569011834112,1.9808342456817627,0.22648152709007263,-0.30945053696632385,0.16542772948741913,-0.2835170030593872,0.8099128007888794,-0.513477623462677,-0.0003727376461029053,0.00737839937210083,-0.007945656776428223,0.3110725237729333,-0.31864838544044777,0.3764630143978176,-0.8123869690116876,-0.9440034499526986,-0.5044928756549982,-2.6718538366495763
1761072569021880064,1.9908802509307861,0.3217824697494507,-0.3130892217159271,0.12219877541065216,-0.2839829623699188,0.8088400363922119,-0.5149092674255371,-0.020002633333206177,0.003644704818725586,0.0011000633239746094,0.3126051038980129,-0.3191673731427826,0.3750700710575255,-0.8122393562697826,-0.9421768155660506,-0.5040097634922369,-2.667602423381487
1761072569031926272,2.0009262561798096,0.3199552595615387,-0.3345085084438324,0.10219470411539078,-0.28476035594940186,0.807436466217041,-0.5166797637939453,-0.029921650886535645,0.0007758140563964844,0.029222488403320312,0.3141046152766584,-0.31971383305635254,0.373420931138369,-0.8122057712150582,-0.939793770914016,-0.5037143026466083,-2.663444093540368
1761072569041971200,2.0109713077545166,0.2971908450126648,-0.3466205596923828,0.06954967975616455,-0.2858029007911682,0.8060804009437561,-0.5182191133499146,-0.0317324697971344,0.001139998435974121,0.047104060649871826,0.31557862567420003,-0.32043110551345194,0.37177190409402444,-0.8121081451314898,-0.9374988010138078,-0.5040015791176702,-2.6596299870980773
1761072569052017152,2.02101731300354,0.31747615337371826,-0.36054277420043945,0.03631662577390671,-0.2872466742992401,0.804581880569458,-0.5197474360466003,-0.03739932179450989,-0.026520967483520508,0.060030579566955566,0.3169520386095292,-0.32128413547250656,0.37000377888655345,-0.8120438165183352,-0.9349710468963931,-0.5048876831216436,-2.656304890694771
1761072569062063104,2.0310633182525635,0.3488638997077942,-0.3866044580936432,0.02364131063222885,-0.2890014052391052,0.80290287733078,-0.5213685631752014,-0.04228213429450989,-0.035843610763549805,0.08801895380020142,0.31826839221415654,-0.3222203040862899,0.3680893865074304,-0.8120280352741265,-0.9321490751536337,-0.5061485574736889,-2.6532475234055557
1761072569072109312,2.041109323501587,0.3825518786907196,-0.39836451411247253,0.02310459315776825,-0.29087987542152405,0.8010078072547913,-0.5232354998588562,-0.04565271735191345,-0.02497631311416626,0.09429574012756348,0.3196671570878896,-0.3231712081923586,0.36598170745619507,-0.8120533603118532,-0.9289767596083429,-0.507381006112361,-2.6499220200569242
1761072569082154240,2.051154375076294,0.40245527029037476,-0.42155584692955017,0.02761811763048172,-0.29287445545196533,0.7989816069602966,-0.5252171158790588,-0.044543176889419556,-0.011872291564941406,0.11187177896499634,0.3211155012909534,-0.32415471606251833,0.3637515105421129,-0.8120920573062068,-0.9255998556534212,-0.5086788433846242,-2.646471405541928
1761072569092200192,2.0612003803253174,0.42603781819343567,-0.42769360542297363,0.06649840623140335,-0.29479581117630005,0.7968838214874268,-0.527324914932251,-0.05475252866744995,-0.019921541213989258,0.10497689247131348,0.32271503182587413,-0.32512536674825193,0.3614291452248652,-0.8121067999884254,-0.9221194195415189,-0.5097573121660046,-2.6425316952142697
1761072569102246400,2.071246385574341,0.3965294361114502,-0.4260994493961334,0.11319826543331146,-0.29635342955589294,0.7949276566505432,-0.5294002294540405,-0.07728850841522217,0.0007876157760620117,0.0983394980430603,0.3245081749692842,-0.3260158702833317,0.3591845285944985,-0.8120311080530901,-0.9188883220525822,-0.5103290991176027,-2.6379221953737946
1761072569112292352,2.0812923908233643,0.34298425912857056,-0.4134979546070099,0.11089915782213211,-0.2976987957954407,0.7933017015457153,-0.5310817360877991,-0.09460467100143433,0.06090056896209717,0.10354572534561157,0.3262984121110026,-0.32691548722679614,0.3571909770862826,-0.8118313760547237,-0.916213023080788,-0.5109082571308351,-2.6333989050807487
1761072569122338304,2.0913383960723877,0.34595927596092224,-0.392086386680603,0.10151577740907669,-0.29904067516326904,0.7917912602424622,-0.5325798988342285,-0.09704697132110596,0.07853955030441284,0.10562372207641602,0.328015733011352,-0.3278273298497112,0.3553017024542556,-0.8116007000723711,-0.9137361408751222,-0.5116253221162834,-2.629141664335686
1761072569132383232,2.1013832092285156,0.38021576404571533,-0.38051652908325195,0.10726660490036011,-0.30032113194465637,0.7901472449302673,-0.5342981219291687,-0.08162158727645874,0.07818460464477539,0.11465096473693848,0.3297537541745042,-0.32864687495390765,0.3533301002076819,-0.8114256122160622,-0.9110492331482014,-0.5120743758869354,-2.6246857462132773
1761072569142429184,2.111429214477539,0.40635573863983154,-0.3736264109611511,0.11975417286157608,-0.30150315165519714,0.7883588671684265,-0.5362704992294312,-0.06450939178466797,0.09437733888626099,0.12355077266693115,0.33152269492802566,-0.3293509642659866,0.351272961055378,-0.8113124435095194,-0.9081368786094118,-0.5121783699129494,-2.6199727430232773
1761072569152475136,2.1214752197265625,0.3915960192680359,-0.3406949043273926,0.12308134883642197,-0.302525132894516,0.7865542769432068,-0.5383408069610596,-0.05547654628753662,0.09955406188964844,0.12656718492507935,0.3333070123680199,-0.3299518106889754,0.34922971799481933,-0.81121929856137,-0.9052090715236765,-0.5119779177245324,-2.6150898334559187
1761072569162521088,2.131521224975586,0.34985655546188354,-0.28814807534217834,0.10823848098516464,-0.303343266248703,0.7848870158195496,-0.5403103232383728,-0.053163081407547,0.09717780351638794,0.1339840292930603,0.3349530052014005,-0.33042473832509833,0.347367711693377,-0.8111483915972694,-0.9025138053744757,-0.5115718276684958,-2.610493926948594
1761072569172567040,2.1415672302246094,0.2741236090660095,-0.24163475632667542,0.0906631350517273,-0.30403798818588257,0.7834798097610474,-0.5419597625732422,-0.04282480478286743,0.09094035625457764,0.1446208953857422,0.33632788517754597,-0.33081768437602543,0.34580308940595317,-0.8110878900009251,-0.9002460299942828,-0.5112472472104068,-2.6066614385309794
1761072569182612224,2.1516122817993164,0.19141994416713715,-0.20631590485572815,0.05571793019771576,-0.3047216534614563,0.7824578285217285,-0.5430511832237244,-0.014934718608856201,0.09122991561889648,0.1476653814315796,0.3374602870091955,-0.3312680787762203,0.3445807340668415,-0.810953913694398,-0.898603120798292,-0.5113472542127372,-2.6036924134797035
1761072569192658176,2.16165828704834,0.15491628646850586,-0.1733342856168747,-0.0001282021403312683,-0.3056062161922455,0.7816157341003418,-0.54376620054245,0.014178603887557983,0.0905003547668457,0.13968294858932495,0.338242528941507,-0.33177043175123055,0.34357717411582894,-0.8108484094882847,-0.8972519681374659,-0.5120229993617724,-2.6018698270003195
1761072569202704128,2.1717042922973633,0.12495093047618866,-0.1687624305486679,-0.021480096504092216,-0.30667856335639954,0.7808600068092346,-0.544248104095459,0.044090062379837036,0.10743039846420288,0.13644170761108398,0.33872335685505855,-0.33229719181769385,0.3427163873955499,-0.8107962997419772,-0.8960412796558465,-0.513141482776584,-2.6009954981870127
1761072569212750080,2.1817502975463867,0.1686137467622757,-0.14155641198158264,-0.036710623651742935,-0.30781090259552,0.7800031900405884,-0.544837236404419,0.05919945240020752,0.12383592128753662,0.09990620613098145,0.33912606198881506,-0.3327828828348155,0.34181419676369434,-0.8108096048242434,-0.8946708744765883,-0.5142557707698775,-2.6002886130318243
1761072569222795264,2.1917953491210938,0.16112548112869263,-0.09866834431886673,-0.06578408926725388,-0.30891335010528564,0.7789347767829895,-0.5457408428192139,0.05566325783729553,0.10140573978424072,0.09336358308792114,0.33939798688153794,-0.33310225482729433,0.3408408397530539,-0.8109743079519893,-0.8929654177317875,-0.5150776096849702,-2.5997337594626737
1761072569232841216,2.201841354370117,0.10402090847492218,-0.07213126868009567,-0.08120281249284744,-0.31001654267311096,0.7780104279518127,-0.5464335083961487,0.056827425956726074,0.0672045350074768,0.12118631601333618,0.33944750872369656,-0.3333922264238715,0.3400483281675042,-0.8111671667567006,-0.8914926911216564,-0.5160626148673002,-2.599825529972921
1761072569242887168,2.2118873596191406,0.07780662178993225,-0.04292278736829758,-0.04912983253598213,-0.31089362502098083,0.7773545384407043,-0.5468683838844299,0.07339060306549072,0.02528822422027588,0.09687149524688721,0.3393962773847573,-0.3336200351498263,0.33950475820369846,-0.8113225868071682,-0.8904494421051459,-0.5169342026918399,-2.6001745917751906
1761072569252933376,2.221933364868164,0.06267417222261429,-0.034543585032224655,-0.016857290640473366,-0.31138500571250916,0.7769082188606262,-0.5472230315208435,0.09103283286094666,0.01471775770187378,0.0830201506614685,0.33943442258839046,-0.3337412195295231,0.33912427991491984,-0.8114159687422667,-0.8897402451907891,-0.5173342615571713,-2.600150845779294
1761072569262979328,2.2319793701171875,0.04667976126074791,-0.03545172140002251,-0.003256794298067689,-0.3116840124130249,0.7766258120536804,-0.5474536418914795,0.09719118475914001,0.03631669282913208,0.08347964286804199,0.3395523885921031,-0.33384987864141435,0.33884719862992174,-0.8114376947934447,-0.8892918378386753,-0.51756572337968,-2.599895311868305
1761072569273024256,2.2420244216918945,0.09832780063152313,-0.010322965681552887,-0.005612538196146488,-0.3118402659893036,0.7762647271156311,-0.5478765964508057,0.09760689735412598,0.054057538509368896,0.07149720191955566,0.3397150797076309,-0.3338555349306988,0.3385294625366609,-0.8114998064652977,-0.888718797929073,-0.5174492457582534,-2.5993670123357764
1761072569283070208,2.252070426940918,0.17212480306625366,0.008323689922690392,-0.03736034780740738,-0.31203240156173706,0.7754795551300049,-0.5488781929016113,0.09775322675704956,0.05458331108093262,0.06453371047973633,0.33986825415047917,-0.3336940046786066,0.33794854241423294,-0.8117442217578286,-0.8874742777683982,-0.5169289565820127,-2.5986022805877544
1761072569293116416,2.2621164321899414,0.16890044510364532,0.03995012491941452,-0.056883715093135834,-0.3122987151145935,0.7743765115737915,-0.5502822399139404,0.0979585349559784,0.05458766222000122,0.06753993034362793,0.339949297020141,-0.333410159215831,0.33718920584559686,-0.812142609124071,-0.8857291450973213,-0.5161982193256464,-2.5978603198681176
1761072569303162368,2.272162437438965,0.10157599300146103,0.06700465083122253,-0.07062482833862305,-0.31210896372795105,0.773984432220459,-0.5509411692619324,0.10045430064201355,0.06599664688110352,0.09818238019943237,0.33985557424701957,-0.3330851200642582,0.33702185542812046,-0.8123846658979702,-0.8851096842359846,-0.5154239656576545,-2.5976853314118995
1761072569313208064,2.282208204269409,-0.015338005498051643,0.09619439393281937,-0.09588509052991867,-0.3119244873523712,0.7741700410842896,-0.5507846474647522,0.0995984673500061,0.057540714740753174,0.12602585554122925,0.3394594879655718,-0.332888709639753,0.3373318409028182,-0.8125019713897892,-0.8854028315784698,-0.5152922022351702,-2.5986454635806746
1761072569323253248,2.292253255844116,-0.11298812925815582,0.12975847721099854,-0.10475102066993713,-0.3114633858203888,0.7749996185302734,-0.5498782992362976,0.09176737070083618,0.04352754354476929,0.13477826118469238,0.3387755466323101,-0.3326826506571201,0.3382057233523134,-0.8125086384788044,-0.8867145210347491,-0.515364119922608,-2.600537969135441
1761072569333299200,2.3022992610931396,-0.16935111582279205,0.180278480052948,-0.08583289384841919,-0.31013110280036926,0.7766257524490356,-0.5483348369598389,0.07653430104255676,0.034394145011901855,0.11638903617858887,0.3380304053056819,-0.3322642303959211,0.3397544117009152,-0.8123440442995294,-0.8892917485370828,-0.5147314376458728,-2.602459934851008
1761072569343345152,2.312345266342163,-0.16002658009529114,0.23834258317947388,-0.06643682718276978,-0.3082450330257416,0.7785043120384216,-0.5467320680618286,0.052309393882751465,0.036482810974121094,0.08883112668991089,0.3372975996300916,-0.3316220939494898,0.34155636243198223,-0.8121553455410592,-0.8922792634495694,-0.5133729592339539,-2.604100416199082
1761072569353391104,2.3223912715911865,-0.1549646109342575,0.2883662283420563,-0.07424992322921753,-0.30607283115386963,0.7802457809448242,-0.5454685091972351,0.03165879845619202,0.045285165309906006,0.08137243986129761,0.336482451701053,-0.33071020755220576,0.3433606217405101,-0.8121044773285193,-0.8950586386165921,-0.5113399159700054,-2.6056252265628754
1761072569363436288,2.3324363231658936,-0.11183471232652664,0.3176862895488739,-0.09465053677558899,-0.303975373506546,0.7816339135169983,-0.544653594493866,0.031392306089401245,0.04324108362197876,0.07420986890792847,0.33542529220163003,-0.3295859716012166,0.34503083549780533,-0.8122910960729032,-0.8972810546628649,-0.5090465918464638,-2.6075537209821267
1761072569373482240,2.342482328414917,-0.07016327232122421,0.3340666890144348,-0.07987185567617416,-0.30205994844436646,0.7825242280960083,-0.5444406270980835,0.045681774616241455,0.0131453275680542,0.0669625997543335,0.3343076974587172,-0.32832846100771684,0.34638145320716757,-0.8126860432805326,-0.8987097233319843,-0.5065269816030187,-2.6094217706721574
1761072569383528192,2.3525283336639404,-0.07397132366895676,0.3492341935634613,-0.0687403753399849,-0.30008071660995483,0.7833824157714844,-0.5443010330200195,0.056733548641204834,0.017002105712890625,0.08171558380126953,0.3332411858108814,-0.32703804144185383,0.3477004374869002,-0.813081144712588,-0.9000893203595521,-0.5038513798376526,-2.6110846633223117
1761072569393574144,2.362574338912964,-0.08934691548347473,0.3548133671283722,-0.077879898250103,-0.29812145233154297,0.7843539714813232,-0.5439783930778503,0.05257701873779297,0.03666043281555176,0.09184521436691284,0.3321246590996279,-0.3257861467760377,0.34910482873497395,-0.8134386843297509,-0.9016539846318726,-0.5013365123041101,-2.612956429622847
1761072569403620352,2.3726203441619873,-0.12083160877227783,0.37105199694633484,-0.07509210705757141,-0.2961820363998413,0.7854679822921753,-0.5434301495552063,0.03620275855064392,0.03276932239532471,0.08746707439422607,0.3309748374724206,-0.324591874023288,0.3506066743989685,-0.8137388052981382,-0.9034519392622299,-0.49901421448909494,-2.615016030277048
1761072569413665280,2.3826653957366943,-0.19198061525821686,0.38528233766555786,-0.10295595973730087,-0.29439249634742737,0.7866948843002319,-0.5426271557807922,0.015080362558364868,0.011431336402893066,0.10013753175735474,0.32963846753971415,-0.3234550277242332,0.3522261492307818,-0.814034461662717,-0.9054368030397589,-0.4970914033652404,-2.6177236638139654
1761072569423711232,2.3927114009857178,-0.2612382471561432,0.3965136706829071,-0.13509337604045868,-0.2929471731185913,0.7880390882492065,-0.5414577722549438,-0.0007387995719909668,-0.005690336227416992,0.11401325464248657,0.3278803216403956,-0.3223924142748797,0.35402576278284137,-0.8143853685927871,-0.9076171889511708,-0.4959336165819565,-2.621818564395065
1761072569433757184,2.402757406234741,-0.30161452293395996,0.4020289182662964,-0.14635244011878967,-0.29192668199539185,0.7891527414321899,-0.5403857231140137,-0.014561325311660767,0.0017102360725402832,0.09751468896865845,0.32586019676097017,-0.3213707018770463,0.35570775098900126,-0.8148668599783941,-0.9094283395434474,-0.4953028512584141,-2.626735134113658
1761072569443802624,2.4128026962280273,-0.28516286611557007,0.396310031414032,-0.17361468076705933,-0.29104000329971313,0.7903006076812744,-0.5391852259635925,-0.024954259395599365,0.038587331771850586,0.07275456190109253,0.3238740116212038,-0.32045517689570663,0.357373552025632,-0.8152903482055082,-0.9112994792129503,-0.49496090655042274,-2.6317000649870588
1761072569453848576,2.422848701477051,-0.2384897768497467,0.3706929683685303,-0.2009546011686325,-0.2904443144798279,0.7911571264266968,-0.5382494926452637,-0.02934938669204712,0.06245005130767822,0.05572080612182617,0.32190493185870056,-0.3195950351258274,0.35879556380593314,-0.8157830561271949,-0.9126986031697535,-0.494830523228944,-2.636653018415644
1761072569463893760,2.432893753051758,-0.22465172410011292,0.3400844633579254,-0.20866286754608154,-0.29017630219459534,0.7917830944061279,-0.5374730229377747,-0.022384732961654663,0.046382129192352295,0.05077868700027466,0.3198832428179883,-0.3188092977489279,0.36003350567758907,-0.8163401530097989,-0.9137228034413621,-0.4950480740259327,-2.641837512007424
1761072569473939712,2.4429397583007812,-0.26055747270584106,0.31204715371131897,-0.1931738257408142,-0.2900371253490448,0.792495846748352,-0.536496639251709,-0.007875412702560425,0.019103825092315674,0.04041820764541626,0.31788164797279467,-0.31814511145715757,0.3612967708146382,-0.8168228059361298,-0.9148905964431081,-0.4956078465197613,-2.64714140591047
1761072569483985664,2.4529857635498047,-0.30333688855171204,0.2799004018306732,-0.15347248315811157,-0.2898368835449219,0.7934974431991577,-0.5351226925849915,0.010326385498046875,-0.011957526206970215,0.03603827953338623,0.3160070206900262,-0.317619640967165,0.3627070479719641,-0.8171296164083204,-0.9165345621766525,-0.49639203961169415,-2.652297855115252
1761072569494031616,2.463031768798828,-0.29951274394989014,0.2510601282119751,-0.10747046023607254,-0.2894662916660309,0.7947499752044678,-0.5334619879722595,0.02495521306991577,-0.04139310121536255,0.02755683660507202,0.3143353534929058,-0.3171836769938251,0.3642300586728023,-0.8172662772148306,-0.918595522187296,-0.4971583008402449,-2.6570084106146976
1761072569504076800,2.473076820373535,-0.26549458503723145,0.2331799417734146,-0.07100166380405426,-0.2888837158679962,0.796007513999939,-0.5319005250930786,0.025288164615631104,-0.05761951208114624,0.012918651103973389,0.3130346723826049,-0.31678242249090016,0.3656482378340413,-0.8172878819596081,-0.9206702815642425,-0.4975426773520125,-2.6606456754422174
1761072569514122752,2.4831228256225586,-0.2157142460346222,0.2383374273777008,-0.0738077461719513,-0.2882046103477478,0.7970954775810242,-0.5306381583213806,0.012356221675872803,-0.04761427640914917,-0.0023360252380371094,0.3119133203243378,-0.3163276109033015,0.36690292162543053,-0.8173305186699,-0.9224698906380748,-0.49755211866381815,-2.663640363630435
1761072569524168704,2.493168830871582,-0.19195298850536346,0.2485911250114441,-0.09114732593297958,-0.2875996232032776,0.7979094982147217,-0.5297423601150513,0.0012684464454650879,-0.03443598747253418,-0.0072296857833862305,0.31070089988133925,-0.3157584909512183,0.3680019134747207,-0.8175182816017948,-0.92381906413568,-0.49737948222688494,-2.66671462403563
1761072569534214656,2.5032148361206055,-0.20722804963588715,0.2531741261482239,-0.10212992876768112,-0.28703969717025757,0.7986853122711182,-0.5288761854171753,-0.00045114755630493164,-0.029260873794555664,-0.007363438606262207,0.3094116696734055,-0.31516420013228247,0.3690981373701773,-0.817742347325299,-0.9251072697686499,-0.4972484697839752,-2.669986898507779
1761072569544260864,2.513260841369629,-0.2556895911693573,0.2553398013114929,-0.12097073346376419,-0.28657856583595276,0.7995840907096863,-0.52776700258255,-0.0008207559585571289,-0.032631635665893555,-0.00040072202682495117,0.3078669966197677,-0.31456552863996845,0.3703579643499241,-0.8179862309201934,-0.9266024042479946,-0.49745461010419756,-2.6740648896807504
1761072569554305792,2.523305892944336,-0.3395150899887085,0.22374603152275085,-0.11986880749464035,-0.2862943410873413,0.800809383392334,-0.5260607600212097,-0.0016542673110961914,-0.032254695892333984,0.012434661388397217,0.3061557414713359,-0.31413674453829243,0.3718705779585387,-0.8181070200821656,-0.9286454282481725,-0.49839702320698187,-2.6789621906975314
1761072569564351744,2.5333518981933594,-0.40157845616340637,0.1934238076210022,-0.11448229849338531,-0.28613632917404175,0.8024553060531616,-0.523632824420929,-0.012111932039260864,-0.01763474941253662,0.00034797191619873047,0.3044896546608931,-0.31398322367809445,0.373628302235367,-0.8179867679079421,-0.9313986237655653,-0.5001094305201523,-2.684205857688262
1761072569574397440,2.5433976650238037,-0.36464694142341614,0.1616652011871338,-0.12100863456726074,-0.28617727756500244,0.8041492104530334,-0.5210054516792297,-0.03764474391937256,-0.009746134281158447,-0.02123081684112549,0.3030529764409504,-0.3140763843255837,0.37530426913965875,-0.8177173882309243,-0.9342428193827506,-0.502289390166166,-2.6891262107560663
1761072569584443648,2.553443670272827,-0.3154410421848297,0.12777328491210938,-0.1106601282954216,-0.286365270614624,0.8055862188339233,-0.5186770558357239,-0.06834056973457336,0.0014053583145141602,-0.04460114240646362,0.30137254579941714,-0.31403736457061454,0.3768846018980872,-0.8176266075897975,-0.9366642691860229,-0.5044594743500735,-2.69458804255013
1761072569594489600,2.5634896755218506,-0.276551216840744,0.08508554100990295,-0.09721711277961731,-0.2866624593734741,0.8068192005157471,-0.5165920853614807,-0.09701976180076599,0.035465896129608154,-0.05652803182601929,0.30012265763811563,-0.3141758484361596,0.3781500971886636,-0.8174486919827836,-0.9387482247319693,-0.5066055660966863,-2.698945303795429
1761072569604534528,2.5735347270965576,-0.23759609460830688,0.06870843470096588,-0.10897203534841537,-0.2871047556400299,0.8078621625900269,-0.5147132277488708,-0.11961826682090759,0.045394062995910645,-0.060070157051086426,0.298894239701544,-0.31433208470071156,0.3792607670417102,-0.817324267955767,-0.9405157166647615,-0.508808599963341,-2.703237298623038
1761072569614580736,2.583580732345581,-0.2157476395368576,0.05251545459032059,-0.12224452197551727,-0.2877616882324219,0.8086757063865662,-0.513066291809082,-0.1279487907886505,0.02324885129928589,-0.048426687717437744,0.2976489812228524,-0.31451485883533714,0.3801937185205757,-0.8172749747551765,-0.9418973458712656,-0.5111477336162561,-2.7075819190160137
1761072569624626688,2.5936267375946045,-0.23424728214740753,0.0353950560092926,-0.11601671576499939,-0.2885342240333557,0.8094931840896606,-0.5113400816917419,-0.11780732870101929,0.0043343305587768555,-0.04321002960205078,0.296368049469447,-0.3147548867214199,0.38112898845595694,-0.817212296886773,-0.9432883765799005,-0.5137335080527232,-2.7121362555348982
1761072569634672640,2.603672742843628,-0.2297290712594986,0.026676764711737633,-0.11020783334970474,-0.2893082797527313,0.8103630542755127,-0.5095217227935791,-0.1021711528301239,-0.01246577501296997,-0.04780548810958862,0.29511114653779225,-0.31502970088898385,0.3820934911366767,-0.8171108566519992,-0.9447714347891185,-0.5164092116423671,-2.7166952581795685
1761072569644717568,2.613717794418335,-0.23263537883758545,0.025614695623517036,-0.09926969558000565,-0.2900563180446625,0.8112360835075378,-0.5077039003372192,-0.08740034699440002,-0.016344785690307617,-0.03888118267059326,0.293973898941528,-0.31534575521694447,0.38302100909050646,-0.8169646770992265,-0.9462630546786678,-0.5190567241093526,-2.7209569687625557
1761072569654763776,2.6237637996673584,-0.24034544825553894,0.024932093918323517,-0.07994287461042404,-0.2907094955444336,0.8121687769889832,-0.505835771560669,-0.0693674087524414,0.0011551976203918457,-0.030464887619018555,0.2929076581570516,-0.3156619061327035,0.3839787238224429,-0.816775975283764,-0.9478598822398883,-0.5216172186103719,-2.725028384907818
1761072569664809728,2.633809804916382,-0.2282150238752365,0.035036128014326096,-0.05502926558256149,-0.2911289930343628,0.8131510019302368,-0.5040132999420166,-0.05544388294219971,0.007375121116638184,-0.0354001522064209,0.2920268515303382,-0.31594033545372735,0.3849351180550185,-0.8165335818368776,-0.9495454630410111,-0.5238022897208021,-2.7284909242304582
1761072569674855680,2.6438558101654053,-0.1966441422700882,0.047244422137737274,-0.030284151434898376,-0.291302889585495,0.8140990138053894,-0.502379834651947,-0.043825894594192505,0.009127914905548096,-0.03057914972305298,0.2912713399157279,-0.31610859248213685,0.38585677311067845,-0.8163032160906241,-0.9511759910208499,-0.5254684845384349,-2.731398679500233
1761072569684901632,2.6539018154144287,-0.16126272082328796,0.061519499868154526,0.006783057004213333,-0.291153222322464,0.8149608373641968,-0.5010674595832825,-0.03739899396896362,0.015239298343658447,-0.022598862648010254,0.29060734047720216,-0.31607825786107996,0.3867309070678522,-0.8161379079593754,-0.9526616020099415,-0.5263809983513918,-2.7337057543019108
1761072569694946816,2.6639468669891357,-0.1342618614435196,0.06817300617694855,0.039690051227808,-0.29064998030662537,0.815764844417572,-0.5000503659248352,-0.03314155340194702,0.01918083429336548,-0.01586449146270752,0.29010482091449236,-0.31587548010272865,0.3875532042819487,-0.8160052091016987,-0.9540503843857551,-0.5265121764994402,-2.735232494445552
1761072569704992768,2.673992872238159,-0.14332513511180878,0.07233366370201111,0.060490407049655914,-0.2898966073989868,0.816580593585968,-0.49915552139282227,-0.030019164085388184,0.0032588839530944824,-0.014043331146240234,0.28978714365713604,-0.31560759192107385,0.3883478931220864,-0.8158439222496269,-0.9554621268800185,-0.5261628686117514,-2.7360819580559115
1761072569715038720,2.6840388774871826,-0.1899573802947998,0.06414180994033813,0.07197004556655884,-0.28902822732925415,0.8176093697547913,-0.49797359108924866,-0.023212432861328125,-0.015149593353271484,-0.0034302473068237305,0.28952063448257787,-0.31538558009617057,0.389287986991196,-0.8155763232512034,-0.9572467070007576,-0.5258895683559801,-2.7369042491233557
1761072569725084672,2.694084882736206,-0.2277630865573883,0.047603584825992584,0.06646023690700531,-0.2882039248943329,0.8188490867614746,-0.4964118003845215,-0.007175743579864502,-0.03770589828491211,0.0038428306579589844,0.28922595393512096,-0.3152720439542733,0.390381394660239,-0.8152019610573481,-0.9594030721105997,-0.5260133859098622,-2.7380475498502066
1761072569735130880,2.7041308879852295,-0.27522218227386475,0.00823191087692976,0.05776146054267883,-0.2879432439804077,0.8200415372848511,-0.49459144473075867,0.013315528631210327,-0.056949496269226074,0.018791913986206055,0.28880498527321286,-0.31543478219079824,0.3914143211081866,-0.8147929220755075,-0.9614835500870721,-0.5272165005565554,-2.7400074192512704
1761072569745175552,2.7141757011413574,-0.30113208293914795,-0.029618533328175545,0.060479216277599335,-0.287783682346344,0.8214598894119263,-0.4923253059387207,0.027499258518218994,-0.05133354663848877,0.018906116485595703,0.28843102470151843,-0.3157867557672548,0.3925761954101164,-0.8142298307204847,-0.9639663390664651,-0.5289740552404829,-2.742191549201482
1761072569755221504,2.724221706390381,-0.2784216105937958,-0.05360625684261322,0.05238809064030647,-0.2877142131328583,0.8229342103004456,-0.489897757768631,0.029566019773483276,-0.04464441537857056,-0.005707681179046631,0.28811828966730174,-0.31625339755468984,0.3937447252509231,-0.8135949422485066,-0.9665564865840481,-0.5310247683295635,-2.744392304739482
1761072569765267712,2.7342677116394043,-0.21574915945529938,-0.06955752521753311,0.028950676321983337,-0.28784888982772827,0.8241367340087891,-0.48779261112213135,0.01920264959335327,-0.05634498596191406,-0.018860220909118652,0.28790148853954384,-0.3167769651922965,0.39465940074156436,-0.8130246259617777,-0.9686763689900955,-0.5331120294723997,-2.746301614660945
1761072569775313664,2.7443137168884277,-0.20033524930477142,-0.09639373421669006,0.004959944635629654,-0.28828907012939453,0.8250993490219116,-0.48590177297592163,0.008290261030197144,-0.0669969916343689,-0.01129060983657837,0.28770009844527983,-0.3173965606763694,0.395358737862593,-0.8125143992582567,-0.9703780719533751,-0.5354838349606664,-2.748245132448471
1761072569785358592,2.7543587684631348,-0.18929192423820496,-0.12915274500846863,-0.014873947016894817,-0.28906527161598206,0.8258755803108215,-0.48411861062049866,0.0021847784519195557,-0.06018954515457153,-0.007855236530303955,0.2875075282645096,-0.3181525881781017,0.3958782912584264,-0.8120337080796178,-0.9717532600058308,-0.5382814447720954,-2.750322878708947
1761072569795404800,2.764404773712158,-0.1799033135175705,-0.1824699342250824,-0.019841009750962257,-0.2902376055717468,0.8265011310577393,-0.4823463261127472,0.008117854595184326,-0.04950833320617676,-0.00889509916305542,0.28734797618333185,-0.31911175538884706,0.3962253455929808,-0.8115443721466434,-0.9728636214242227,-0.5416834970962607,-2.752572773334507
1761072569805450752,2.7744507789611816,-0.15076327323913574,-0.23967862129211426,-0.017871068790555,-0.2916269898414612,0.8269663453102112,-0.48070839047431946,0.020829230546951294,-0.04829496145248413,-0.024784862995147705,0.28735917234216884,-0.32022253218451907,0.39636263623602735,-0.811035805612487,-0.9736905257407504,-0.5453028643218525,-2.7544619502799197
1761072569815496704,2.784496784210205,-0.12820284068584442,-0.2845939099788666,-0.03491263464093208,-0.2931448221206665,0.8272855281829834,-0.47923338413238525,0.01586216688156128,-0.06855756044387817,-0.03033384680747986,0.2875729552014143,-0.32145054095790876,0.396298953263123,-0.8105050224811827,-0.9742584884778663,-0.5489746767659349,-2.755832946597925
1761072569825542656,2.7945427894592285,-0.1392941027879715,-0.3119397759437561,-0.055634692311286926,-0.2947986125946045,0.827693521976471,-0.4775116741657257,-0.003007233142852783,-0.0671190619468689,-0.02676081657409668,0.2876297747600181,-0.3227334484451829,0.39634237846173503,-0.8099537566101599,-0.9749850432874336,-0.5530895244626849,-2.7578398419465917
1761072569835587840,2.8045878410339355,-0.1335223764181137,-0.3257923126220703,-0.0697113648056984,-0.29664134979248047,0.8280249834060669,-0.47579264640808105,-0.01617911458015442,-0.041998982429504395,-0.033286333084106445,0.2876976403800142,-0.32411188462887724,0.3963018617441101,-0.8093988285003508,-0.9755759829989391,-0.5574966698013748,-2.7599403629355383
1761072569845633792,2.814633846282959,-0.09917504340410233,-0.31858155131340027,-0.08783337473869324,-0.29872894287109375,0.8281241059303284,-0.4743116796016693,-0.027809172868728638,-0.02743440866470337,-0.045097529888153076,0.2877998168784829,-0.3255602054189287,0.396048880968166,-0.8089049448680834,-0.975752854498257,-0.5620547840588056,-2.761953302794169
1761072569855679744,2.8246798515319824,-0.06909827142953873,-0.2952699661254883,-0.10720404982566833,-0.3009951114654541,0.8282228708267212,-0.47270360589027405,-0.03732270002365112,-0.024222075939178467,-0.04606470465660095,0.28782290030834695,-0.32708948820044065,0.3958038221941128,-0.808399464040322,-0.9759290530308012,-0.5670058359059563,-2.7643544554527506
1761072569865725696,2.834725856781006,-0.04220114275813103,-0.2667680084705353,-0.1025155559182167,-0.3032156229019165,0.8281565308570862,-0.4713989794254303,-0.03852018713951111,-0.017090916633605957,-0.0480864942073822,0.28780707255489735,-0.32849556851971795,0.39546324078719913,-0.8080015561588094,-0.97581064416351,-0.5715977569651557,-2.766618106412529
1761072569875771648,2.8447718620300293,-0.013668602332472801,-0.2443028837442398,-0.0798700749874115,-0.3051978349685669,0.8280023336410522,-0.4703896641731262,-0.034066081047058105,-0.015410840511322021,-0.04987400770187378,0.2878528228004327,-0.3297376458801136,0.39506740688017494,-0.8076729703920676,-0.9755356451171218,-0.5755446695071309,-2.7683809255635556
1761072569885816576,2.8548166751861572,0.00323261646553874,-0.21920524537563324,-0.039970070123672485,-0.3068141043186188,0.8278372287750244,-0.4696282744407654,-0.026239484548568726,-0.015810251235961914,-0.03978639841079712,0.2880725549481779,-0.3308225886718828,0.39464195898481097,-0.8073589150463429,-0.9752412116911517,-0.5787004531549055,-2.7693200858188582
1761072569895862528,2.8648626804351807,0.016623621806502342,-0.19309091567993164,0.000811450183391571,-0.3079645037651062,0.8277243971824646,-0.46907368302345276,-0.017749547958374023,-0.005321502685546875,-0.033657580614089966,0.28844259353937907,-0.33170240905586607,0.3942545796666352,-0.8070549489877576,-0.975040162951069,-0.5809573658577094,-2.7694649572366
1761072569905908480,2.874908685684204,0.03633581101894379,-0.159568652510643,0.018810158595442772,-0.30871930718421936,0.8276292681694031,-0.46874526143074036,-0.009243309497833252,0.0052258968353271484,-0.024815529584884644,0.2888414927785563,-0.33234604519207944,0.39392065428487244,-0.8068105008719811,-0.9748706539981,-0.5824026497409526,-2.7691472610053767
1761072569915954688,2.8849546909332275,0.039079032838344574,-0.1364176869392395,0.031425729393959045,-0.3092273473739624,0.827529788017273,-0.46858614683151245,-0.00025141239166259766,0.005828976631164551,-0.008601963520050049,0.2892403587437617,-0.3328258445457142,0.39361641930528735,-0.8066183260026266,-0.974693351309837,-0.5833142683541231,-2.768566823504277
1761072569925999616,2.8949997425079346,0.015134284272789955,-0.1137712299823761,0.04037847742438316,-0.3095237612724304,0.8275113105773926,-0.46842312812805176,0.008772999048233032,0.017520427703857422,0.0011379718780517578,0.2895691694210659,-0.33317172237565,0.39342729809607774,-0.8064498739694338,-0.9746604712548527,-0.5839148312671583,-2.76803771425457
1761072569936045568,2.905045747756958,0.011537384241819382,-0.09624865651130676,0.02757994830608368,-0.31009167432785034,0.8270732760429382,-0.4688207507133484,0.01462051272392273,0.03602480888366699,0.011713236570358276,0.28976373597333366,-0.3334278760488564,0.3929573502492934,-0.8065031380488727,-0.9738807566876082,-0.5843678159570815,-2.767614822211416
1761072569946091776,2.9150917530059814,0.013532359153032303,-0.09176762402057648,0.008246996439993382,-0.31071147322654724,0.8266608119010925,-0.4691377580165863,0.02338850498199463,0.041915178298950195,0.024252504110336304,0.28987672893814476,-0.33369059954069014,0.39253242522418547,-0.8065607995488772,-0.9731473359916031,-0.584975721050861,-2.767478794963275
1761072569956137728,2.925137758255005,-0.014731302857398987,-0.0960850715637207,0.02418530359864235,-0.31130552291870117,0.8263635039329529,-0.46926766633987427,0.03341251611709595,0.042716026306152344,0.026564449071884155,0.289981658916491,-0.33398811518396676,0.3921965226992323,-0.8065633279411838,-0.9726192102537323,-0.5857278489652411,-2.7674748987650397
1761072569966183680,2.9351837635040283,-0.021901864558458328,-0.10580667853355408,0.030948668718338013,-0.3117586672306061,0.8262776732444763,-0.4691179394721985,0.041403502225875854,0.042588233947753906,0.02363765239715576,0.2901446690144355,-0.33432339326352883,0.392006248456727,-0.8064582534279792,-0.9724667404168459,-0.5865451709458811,-2.767436295514823
1761072569976228608,2.9452288150787354,-0.03188622370362282,-0.11978171765804291,0.033587682992219925,-0.3121562898159027,0.8262760639190674,-0.4688563644886017,0.0377422571182251,0.025118529796600342,0.024413615465164185,0.2903574068293983,-0.33468705573988095,0.391862728597781,-0.8063006339386679,-0.9724639259075096,-0.5873901259785054,-2.767318775052686
1761072569986274816,2.955274820327759,-0.03128195181488991,-0.12676452100276947,0.049537621438503265,-0.31240445375442505,0.8264527320861816,-0.4683796167373657,0.02755337953567505,0.01532888412475586,0.028071999549865723,0.29065333699172097,-0.3350792925488198,0.3918316775156514,-0.806046260381394,-0.9727776719638043,-0.5882263234356186,-2.7670566238249963
1761072569996320768,2.9653208255767822,-0.018324939534068108,-0.13460905849933624,0.06189850717782974,-0.31248509883880615,0.8267508149147034,-0.46779927611351013,0.019302725791931152,0.01312345266342163,0.02685081958770752,0.29111348901613365,-0.33550062168074446,0.3918414175307137,-0.8057000509014535,-0.9733072991313225,-0.588917984112815,-2.7663616592475297
1761072570006366720,2.9753668308258057,-0.0002921433188021183,-0.13749432563781738,0.053431250154972076,-0.3124697804450989,0.8270958662033081,-0.4671991169452667,0.009613364934921265,0.01821047067642212,0.030263692140579224,0.2914895360467676,-0.33584128709280764,0.3919324807489275,-0.8053777646460136,-0.973920904392489,-0.5894884312606237,-2.765833910069606
1761072570016412672,2.985412836074829,0.00461925845593214,-0.13893508911132812,0.04342309385538101,-0.3124573528766632,0.8274503350257874,-0.46657946705818176,0.004351884126663208,0.014499127864837646,0.038372039794921875,0.2920278512488361,-0.3362679615037057,0.39196189698422035,-0.8049903582820729,-0.9745518476149396,-0.5900835200337028,-2.7649185567837136
1761072570026457856,2.995457887649536,-0.011395927518606186,-0.14034338295459747,0.034463949501514435,-0.3124134838581085,0.8279403448104858,-0.46573883295059204,0.0018971264362335205,0.01011812686920166,0.04783111810684204,0.2923793077726694,-0.3366500190290648,0.3921700532498903,-0.8046016221205806,-0.9754250199774706,-0.590852584092032,-2.764602713859081
1761072570036503808,3.0055038928985596,-0.028327539563179016,-0.13279327750205994,0.025388965383172035,-0.3122134506702423,0.8285952210426331,-0.4647071361541748,0.004367411136627197,0.006747186183929443,0.047592878341674805,0.29285920264643434,-0.3370739184041537,0.39246351394027534,-0.8041063586640367,-0.9765937749761859,-0.5915824486826288,-2.7640104901072933
1761072570046549760,3.015549898147583,-0.0682203620672226,-0.13095250725746155,0.026062477380037308,-0.31184783577919006,0.8294403553009033,-0.4634432792663574,0.0070230066776275635,0.0030333995819091797,0.05685758590698242,0.2932533365706706,-0.3374422448109086,0.39295177168960915,-0.8035696078896406,-0.978105014937592,-0.5923009035196066,-2.763697912400927
1761072570056595456,3.0255956649780273,-0.07799533009529114,-0.12553367018699646,0.035107459872961044,-0.3114132285118103,0.8304070830345154,-0.4620021879673004,0.009853750467300415,0.0010595917701721191,0.0540279746055603,0.29368023843787044,-0.33784358586176355,0.39352333518206606,-0.8029652031426165,-0.979837887483856,-0.5930977142111411,-2.7633889323773686
1761072570066640640,3.0356407165527344,-0.0540630966424942,-0.11177392303943634,0.049433402717113495,-0.31096509099006653,0.8313702344894409,-0.4605695307254791,0.0031495094299316406,0.002400517463684082,0.03976261615753174,0.29406831986669685,-0.3382179331779243,0.39411148963848835,-0.8023768587764795,-0.9815688570825611,-0.5938699520224306,-2.763164565151709
1761072570076686592,3.045686721801758,-0.015806587412953377,-0.09710089862346649,0.06390430778265,-0.3105701804161072,0.832126796245575,-0.4594684839248657,-0.00736197829246521,0.015544712543487549,0.030543923377990723,0.29452100330140035,-0.338558135213557,0.3945176195860879,-0.8018676325850754,-0.982931628649078,-0.5943907494100056,-2.7625783550870073
1761072570086732544,3.0557327270507812,0.0028792149387300014,-0.08170090615749359,0.058385707437992096,-0.31027549505233765,0.8326990604400635,-0.4586297571659088,-0.013515949249267578,0.019107520580291748,0.021801233291625977,0.29490365842733773,-0.33883932831296565,0.3948075807784817,-0.8014652596639318,-0.9839642860641261,-0.5947980774582649,-2.76204123551816
1761072570096778752,3.0657787322998047,-0.01450376957654953,-0.06521621346473694,0.056199606508016586,-0.3100883364677429,0.8332783579826355,-0.45770320296287537,-0.014710217714309692,0.006305873394012451,0.026169419288635254,0.29511225227062277,-0.33911041104600764,0.3951614013464618,-0.8010993746413586,-0.9850113716660635,-0.5954567979363986,-2.7620655037651782
1761072570106824704,3.075824737548828,-0.046478480100631714,-0.057236846536397934,0.04195648804306984,-0.3100219964981079,0.8339877128601074,-0.4564546048641205,-0.0063994526863098145,-0.009112894535064697,0.03248915076255798,0.29516434332370944,-0.33945112271723815,0.3956584852237594,-0.8006904803778029,-0.9862956368507058,-0.5966264836745042,-2.7627836392822633
1761072570116869632,3.085869789123535,-0.040863972157239914,-0.057193733751773834,0.03184375539422035,-0.3100217282772064,0.8346999287605286,-0.4551510512828827,0.004464477300643921,-0.017484962940216064,0.025799274444580078,0.2952948839688976,-0.3398773998072686,0.39611591778432775,-0.8002352240475926,-0.9875876859747131,-0.5979559799319261,-2.763388330021164
1761072570126915584,3.0959157943725586,-0.028946857899427414,-0.07388083636760712,0.021210554987192154,-0.310123085975647,0.8353425860404968,-0.4539012610912323,0.01216474175453186,-0.015213251113891602,0.012464582920074463,0.29542967612626886,-0.34033941075553814,0.3965078175137584,-0.799794867757838,-0.988755630785425,-0.5993882127358333,-2.764008862009656
1761072570136961792,3.105961799621582,0.004408335313200951,-0.08549024909734726,0.0065415967255830765,-0.3103402853012085,0.8357753753662109,-0.4529554843902588,0.01134425401687622,-0.014409899711608887,0.006803691387176514,0.2953598790575685,-0.34067062263759734,0.39681958470805456,-0.7995251531696853,-0.9895433756320305,-0.6006865962239556,-2.764995522447377
1761072570147007744,3.1160078048706055,-0.008546344935894012,-0.088581383228302,0.0011108783073723316,-0.31073224544525146,0.8360025882720947,-0.452266663312912,0.006243109703063965,-0.019230127334594727,0.0057486891746521,0.2952469766415057,-0.3409921117671892,0.3969773949271537,-0.7993513391766238,-0.9899574017815685,-0.601985385051321,-2.7660114359014156
1761072570157053696,3.126053810119629,-0.021466637030243874,-0.09639140218496323,-0.00037862779572606087,-0.31123432517051697,0.8362335562705994,-0.45149385929107666,0.0022896230220794678,-0.020834386348724365,0.00935518741607666,0.29515079731433386,-0.3413975006341642,0.39711562317681576,-0.7991451642777518,-0.9903784107288501,-0.6035380622384574,-2.767114074568292
1761072570167098880,3.136098861694336,-0.029608719050884247,-0.0922003909945488,-0.004324100911617279,-0.3117862641811371,0.8364469408988953,-0.450717031955719,-0.008449941873550415,-0.013525187969207764,0.012530386447906494,0.2950555655502306,-0.34182819631234035,0.3972341556876572,-0.7989372373130351,-0.9907676634835516,-0.6051716985076103,-2.768248694635379
1761072570177144832,3.1461448669433594,-0.017097655683755875,-0.09042199701070786,-0.00626749824732542,-0.3124384880065918,0.8366071581840515,-0.44996732473373413,-0.018204182386398315,0.003404378890991211,0.009278267621994019,0.29495981932210913,-0.34229875094529433,0.39730077534264363,-0.7987379647497329,-0.9910601109575126,-0.6069294597647575,-2.769426214254906
1761072570187190784,3.156190872192383,0.00501563586294651,-0.08154061436653137,-0.011479836888611317,-0.3130597770214081,0.8366993069648743,-0.44936394691467285,-0.02208426594734192,0.018037021160125732,0.0040056705474853516,0.29488090599752087,-0.3427222903148332,0.39731531506901285,-0.7985783313640322,-0.9912283330341861,-0.6084896798154708,-2.770436844804151
1761072570197236736,3.1662368774414062,0.012716165743768215,-0.07478310912847519,-0.009928812272846699,-0.31351447105407715,0.8366978168487549,-0.44904956221580505,-0.015205621719360352,0.021731138229370117,0.004240572452545166,0.29485153335373676,-0.3430110429314441,0.3972639555247258,-0.7984906840599005,-0.9912255530730489,-0.6094990389541756,-2.7710119616199638
1761072570207281664,3.176281690597534,-0.0018814182840287685,-0.07229598611593246,-0.0008503622375428677,-0.3137061297893524,0.8366920351982117,-0.4489264488220215,-0.005599290132522583,0.01700669527053833,0.007932186126708984,0.29503952352499074,-0.3432298007769124,0.3971524573331398,-0.7983827131335169,-0.9912150128766302,-0.6099146424078372,-2.7707455031097674
1761072570217327616,3.1863276958465576,-0.03543724864721298,-0.07479323446750641,0.003951050341129303,-0.31383347511291504,0.8367929458618164,-0.4486490786075592,0.004522591829299927,0.010603845119476318,0.01468917727470398,0.29503434709868626,-0.34336490861572894,0.39721027586767493,-0.7982976755694791,-0.9913993393582116,-0.6103954661090824,-2.771038318450174
1761072570227373568,3.196373701095581,-0.055429067462682724,-0.07319453358650208,0.013300077989697456,-0.3140357732772827,0.8369879126548767,-0.4481435716152191,0.01182025671005249,-0.0009894371032714844,0.013954728841781616,0.29515215372596887,-0.3436603245902653,0.3972729515838589,-0.7980957959427798,-0.9917554999552152,-0.6112279182919776,-2.7712361339411244
1761072570237419520,3.2064197063446045,-0.05485355854034424,-0.07916534692049026,0.0318380743265152,-0.3142283856868744,0.8372511863708496,-0.4475165009498596,0.01369127631187439,-0.008348047733306885,0.01036745309829712,0.2951815148024579,-0.3439409989592768,0.3974246326466346,-0.7978885936078689,-0.9922368309820225,-0.6121744624022735,-2.7717405332998464
1761072570247465728,3.216465711593628,-0.03895768150687218,-0.07574903964996338,0.03715081512928009,-0.3145020008087158,0.8375316858291626,-0.4467986524105072,0.008212357759475708,0.001274406909942627,0.0033935606479644775,0.29533359345329974,-0.34434672850349834,0.3975248387180159,-0.7976072133603622,-0.992749924146348,-0.6133392342413538,-2.772053587499891
1761072570257510656,3.226510763168335,-0.032317087054252625,-0.08369644731283188,0.029426850378513336,-0.31485021114349365,0.8377676010131836,-0.44611063599586487,-0.00459250807762146,0.0054024457931518555,0.003285348415374756,0.2953933537778397,-0.3447336385090514,0.3976221911288532,-0.797369393428018,-0.9931818308242761,-0.6145860214794807,-2.7726215877493305
1761072570267556608,3.2365567684173584,-0.04088154807686806,-0.09554218500852585,0.025138361379504204,-0.3152547776699066,0.8380184173583984,-0.44535332918167114,-0.012381941080093384,0.007867813110351562,0.008814632892608643,0.2955490856990144,-0.3452145724958835,0.39768106635238387,-0.7970743165743317,-0.9936414003916034,-0.6159921095946281,-2.773035150043401
1761072570277602560,3.246602773666382,-0.06175803393125534,-0.09469453990459442,0.025475960224866867,-0.3155820965766907,0.8383646011352539,-0.4444689154624939,-0.012695461511611938,0.004866540431976318,0.009166210889816284,0.29543265425942206,-0.3455586688302918,0.39793811336832463,-0.796839968942502,-0.9942761669047567,-0.6174195820547139,-2.7741825546033105
1761072570287648768,3.2566487789154053,-0.08373869955539703,-0.1022893413901329,0.021742209792137146,-0.3158089220523834,0.838860273361206,-0.44337156414985657,-0.013643592596054077,0.010535478591918945,0.009579479694366455,0.29543193916715443,-0.34597228631187954,0.39826799520935036,-0.7964960166223243,-0.9951860756021386,-0.6189264427568526,-2.775142882172309
1761072570297694720,3.2666947841644287,-0.07715293765068054,-0.1098404973745346,0.02486645244061947,-0.3159613311290741,0.8394432663917542,-0.44215768575668335,-0.011217623949050903,0.00651925802230835,-0.0005150437355041504,0.29549734687012874,-0.3464164187821946,0.39864373183800195,-0.7960905104481467,-0.9962579306787371,-0.6204507349895054,-2.7759844735661985
1761072570307739648,3.2767398357391357,-0.05680931359529495,-0.12035465985536575,0.03298217058181763,-0.31606343388557434,0.8399271368980408,-0.4411647319793701,-0.0018534362316131592,-0.0046457648277282715,-0.006192445755004883,0.29563836128608373,-0.34681298710900244,0.3989215283838502,-0.7957263145376587,-0.9971489931899322,-0.6216675774374636,-2.7764427436423076
1761072570317785856,3.286785840988159,-0.04253004491329193,-0.15085232257843018,0.05128554254770279,-0.3161448538303375,0.8403230309486389,-0.44035160541534424,0.0103587806224823,-0.005301117897033691,-0.006105273962020874,0.29583663540816446,-0.3471784800581007,0.39911314783362073,-0.7953969834570106,-0.9978788206993773,-0.6226632749287743,-2.7766103309050854
1761072570327831808,3.2968318462371826,0.0008643013425171375,-0.17022442817687988,0.07292559742927551,-0.31617310643196106,0.840644121170044,-0.4397181570529938,0.01894715428352356,-0.004706621170043945,-0.015237867832183838,0.29618895834064735,-0.34754595281696893,0.399190086324471,-0.7950667884278283,-0.9984714209870132,-0.6233877374995246,-2.7762234524904508
1761072570337877760,3.306877851486206,0.04872962832450867,-0.19404564797878265,0.08995082229375839,-0.3163280189037323,0.8407602310180664,-0.439384788274765,0.019681870937347412,-0.0034494400024414062,-0.020499885082244873,0.29678524580049365,-0.34801225063598684,0.39899258458503445,-0.7947396087846752,-0.9986858568789714,-0.6239795425901546,-2.775069397888266
1761072570347923712,3.3169238567352295,0.07601024955511093,-0.2181326150894165,0.09339775145053864,-0.316596120595932,0.8407760858535767,-0.4391610622406006,0.019721150398254395,0.009947121143341064,-0.016695231199264526,0.2975307653724989,-0.3485764448082496,0.39864009956456176,-0.7943903104294381,-0.9987151771529627,-0.6246228709982521,-2.7735224461981165
1761072570357968640,3.3269686698913574,0.10114426165819168,-0.23854032158851624,0.09515233337879181,-0.3169628977775574,0.8406526446342468,-0.43913277983665466,0.024604499340057373,0.009933292865753174,-0.01739490032196045,0.2983821997676578,-0.3491852796253008,0.39812465926573193,-0.7940619972339888,-0.9984872276600186,-0.6252027811944284,-2.771617120828098
1761072570368014592,3.337014675140381,0.0732383280992508,-0.26938796043395996,0.11199762672185898,-0.31735751032829285,0.8406137228012085,-0.4389224052429199,0.03856417536735535,0.011818528175354004,-0.010815143585205078,0.2993266441288893,-0.3499047056612053,0.39762482045526637,-0.7936402466938604,-0.9984153227019193,-0.626020864663763,-2.7696313121199525
1761072570378060544,3.3470606803894043,0.07611451297998428,-0.2852174937725067,0.12558613717556,-0.31766578555107117,0.8406341671943665,-0.4386599659919739,0.048332929611206055,0.01770317554473877,-0.010482460260391235,0.3003806855329572,-0.3506525756860951,0.39713069179960697,-0.7931590958764442,-0.9984530599622423,-0.6267660180553785,-2.767356101407141
1761072570388106496,3.3571066856384277,0.08334499597549438,-0.30160048604011536,0.14281998574733734,-0.31782540678977966,0.840640127658844,-0.43853285908699036,0.05145278573036194,0.01293647289276123,-0.008427530527114868,0.3015551334043537,-0.3513517998902275,0.3965923342756399,-0.7926732157265367,-0.9984640581764033,-0.6271423901070619,-2.7645846332188695
1761072570398152704,3.367152690887451,0.11199375241994858,-0.32293564081192017,0.1652040332555771,-0.3177814483642578,0.8406869769096375,-0.4384748339653015,0.05507093667984009,0.033916175365448,0.001157999038696289,0.3028605683205647,-0.35200049273029205,0.3960533322472783,-0.7921570319562029,-0.9985506292470372,-0.6271395642975296,-2.761308084698252
1761072570408197632,3.377197742462158,0.14931370317935944,-0.3580473065376282,0.20018625259399414,-0.3175598084926605,0.8406821489334106,-0.43864503502845764,0.061166346073150635,0.050431132316589355,-0.004607498645782471,0.30454284447876934,-0.3526881726429481,0.3953334432496771,-0.7915657379845122,-0.9985416421101321,-0.6266236834198765,-2.7567993989251938
1761072570418243584,3.3872437477111816,0.19783401489257812,-0.39865297079086304,0.2304525524377823,-0.3172517716884613,0.8405633568763733,-0.43909507989883423,0.0689760148525238,0.05640929937362671,-0.010535657405853271,0.3065030179243685,-0.35339279973368154,0.39441855312361024,-0.7909509193550704,-0.9983223329503559,-0.6256759202856783,-2.7513225730777573
1761072570428289536,3.397289752960205,0.21393442153930664,-0.4508166015148163,0.2701490819454193,-0.3168543875217438,0.8404574394226074,-0.4395846128463745,0.07585707306861877,0.07047700881958008,0.0002993345260620117,0.30874622409081903,-0.354183280766375,0.3933978796195064,-0.7902329687680902,-0.9981268645381467,-0.6245524095819597,-2.745044617518342
1761072570438335744,3.4073357582092285,0.23679333925247192,-0.4930574297904968,0.2983861267566681,-0.31657058000564575,0.8403623104095459,-0.43997088074684143,0.07758739590644836,0.0963747501373291,0.009367883205413818,0.3112019605473949,-0.3551602692963979,0.3922699932723296,-0.7893914429969453,-0.9979512888284646,-0.623710950018455,-2.7383689457366147
1761072570448381184,3.4173812866210938,0.275044322013855,-0.5363828539848328,0.3390270471572876,-0.31616950035095215,0.8402393460273743,-0.44049373269081116,0.07765936851501465,0.11404532194137573,0.01176750659942627,0.3139267534361325,-0.35617381406071935,0.3910157966042618,-0.7884776026082083,-0.9977245452672348,-0.6225473526169053,-2.7308344810250764
1761072570458427136,3.427427291870117,0.30102458596229553,-0.5852548480033875,0.38524889945983887,-0.3156295120716095,0.8401061296463013,-0.4411346912384033,0.08584734797477722,0.1338929533958435,0.018649280071258545,0.3169704248719478,-0.3572428918698599,0.3896282539533744,-0.7874625164147819,-0.9974788947431593,-0.6210495449932145,-2.722314517467292
1761072570468473088,3.4374732971191406,0.33825716376304626,-0.632071852684021,0.4363653361797333,-0.31487178802490234,0.839980959892273,-0.44191378355026245,0.09932613372802734,0.14581310749053955,0.02490633726119995,0.3203540266560411,-0.35833449467189155,0.3881230396598178,-0.786339780742231,-0.997248147490947,-0.6190783650034223,-2.71269187018681
1761072570478519296,3.447519302368164,0.3456222116947174,-0.6657009720802307,0.48607775568962097,-0.31387612223625183,0.8399137854576111,-0.44274887442588806,0.11265850067138672,0.13939529657363892,0.04121387004852295,0.3239830254805017,-0.35941630277762276,0.3865817930248459,-0.7851174354409689,-0.9971243256894383,-0.6166913964407716,-2.7022521965928
1761072570488565248,3.4575653076171875,0.3606424331665039,-0.6915048956871033,0.5344799160957336,-0.3125894069671631,0.8399474620819092,-0.44359472393989563,0.1258217990398407,0.13856828212738037,0.05409884452819824,0.32783180754839913,-0.3604649366715341,0.3850554144796911,-0.7837880830886438,-0.9971863490090184,-0.6138556272307149,-2.691057458514728
1761072570498610176,3.4676103591918945,0.37255218625068665,-0.716833233833313,0.5812268257141113,-0.31103888154029846,0.8400582075119019,-0.44447392225265503,0.14560309052467346,0.13816756010055542,0.06185978651046753,0.331895998814466,-0.36148476252106454,0.3835255036683774,-0.7823566910014365,-0.9973904594602138,-0.6105857483556943,-2.679112945476318
1761072570508656384,3.477656364440918,0.4146096110343933,-0.7518511414527893,0.6330306529998779,-0.30919262766838074,0.8401827216148376,-0.4455254375934601,0.16522595286369324,0.15494972467422485,0.06835871934890747,0.3362225112770781,-0.36244226193909784,0.38193308721678454,-0.7808438509542723,-0.9976200312402701,-0.6066846662215563,-2.6661758400922375
1761072570518702336,3.4877023696899414,0.45708608627319336,-0.7889829277992249,0.6873515844345093,-0.3070853054523468,0.8402785062789917,-0.4468006193637848,0.1816122829914093,0.1875687837600708,0.0838245153427124,0.3409513624463696,-0.3634052123636962,0.38017936386963674,-0.7791999715733486,-0.9977967154256286,-0.602150402206259,-2.6518687335615736
1761072570528748288,3.497748374938965,0.5053311586380005,-0.8267790079116821,0.7392376661300659,-0.30470702052116394,0.8402987718582153,-0.4483877420425415,0.19258543848991394,0.21542632579803467,0.104683518409729,0.3460158329857041,-0.36430761663885813,0.37826722530219953,-0.7774746966644043,-0.9978341518904016,-0.5968766995585563,-2.6362923775802507
1761072570538794240,3.5077943801879883,0.5308666825294495,-0.8709233999252319,0.7917692065238953,-0.3020831048488617,0.8402909636497498,-0.45017439126968384,0.1958513855934143,0.24326616525650024,0.13279157876968384,0.3514666076734635,-0.36521844010752036,0.3762024731796473,-0.7756020010419494,-0.9978196812373161,-0.5910212402154577,-2.6194068551963223
1761072570548839168,3.517839193344116,0.5587193369865417,-0.9168416261672974,0.851492166519165,-0.2992333471775055,0.8403095006942749,-0.45203933119773865,0.1887444257736206,0.27410101890563965,0.15456920862197876,0.35722582817207477,-0.3661456472469418,0.37405574366727967,-0.7735693540718261,-0.9978538613549615,-0.5847392168479923,-2.6014997508273607
1761072570558885120,3.5278851985931396,0.5875469446182251,-0.9532715082168579,0.9029801487922668,-0.29609864950180054,0.840323269367218,-0.45407330989837646,0.16670408844947815,0.2958614230155945,0.16974103450775146,0.3633851796887518,-0.36707776345245696,0.37177581774544344,-0.7713546544393265,-0.9978792604321449,-0.5778461074538397,-2.582228666933854
1761072570568931072,3.537931203842163,0.5936697721481323,-0.9812917113304138,0.9467337727546692,-0.29272380471229553,0.840384304523468,-0.4561435580253601,0.13909834623336792,0.3135920763015747,0.18787881731987,0.36977649303873983,-0.36799561112338114,0.3694691454172277,-0.7689844577552604,-0.9979919112285929,-0.5705438634405429,-2.562133577274915
1761072570578977024,3.5479772090911865,0.5737518072128296,-1.015274167060852,0.9814126491546631,-0.2891741096973419,0.8405270576477051,-0.45814043283462524,0.11717700958251953,0.3117251396179199,0.20662981271743774,0.37643419882584117,-0.36898081483192086,0.36712795570130047,-0.7663991057685996,-0.9982553546121238,-0.5630388441380152,-2.5412233443205414
1761072570589023232,3.55802321434021,0.5603465437889099,-1.0477937459945679,1.019221544265747,-0.2854902148246765,0.8407983183860779,-0.4599495232105255,0.10702341794967651,0.2978430390357971,0.2268105149269104,0.38320908831822104,-0.37001927375381516,0.3648437717273096,-0.763626577395982,-0.9987561859761968,-0.5555004790666291,-2.5199659047483287
1761072570599068160,3.568068265914917,0.5644788146018982,-1.0658416748046875,1.0747740268707275,-0.28156277537345886,0.8411948084831238,-0.46164220571517944,0.09961700439453125,0.28778761625289917,0.22262856364250183,0.3901293195370089,-0.37105622385912007,0.3626240082057696,-0.7606708321007848,-0.9994891033648977,-0.5476784833491984,-2.4981537659545956
1761072570609114112,3.5781142711639404,0.5763655304908752,-1.080241084098816,1.1583086252212524,-0.27710139751434326,0.8416860699653625,-0.4634430408477783,0.09077632427215576,0.29141634702682495,0.20970463752746582,0.39726770767452013,-0.37192843600315073,0.36048262288805505,-0.7575618619410693,-1.0003982405535903,-0.5388879338769035,-2.47524944130157
