time,seconds_elapsed,rotationRateX,rotationRateY,rotationRateZ,gravityX,gravityY,gravityZ,accelerationX,accelerationY,accelerationZ,quaternionW,quaternionX,quaternionY,quaternionZ,pitch,roll,yaw
1761602706756056832,0.6680567264556885,0.05994274467229843,-0.5777494311332703,1.1771634817123413,0.07289931178092957,0.5769347548484802,-0.8135305643081665,-0.054985493421554565,0.08988958597183228,0.063362717628479,0.545219751097508,-0.20483200310793392,-0.22644771303995662,0.7807052602893901,-0.6149708939646783,0.08936987857240632,1.9507297362579235
1761602706766100736,0.6781005859375,0.10954704880714417,-0.5155723094940186,1.1734461784362793,0.07530739158391953,0.5754414796829224,-0.8143684267997742,-0.05609658360481262,0.08314311504364014,0.06957167387008667,0.5400395408842107,-0.20384207431859194,-0.22641597826048596,0.7845646012849371,-0.613143860571123,0.09221112035053984,1.965099189625602
1761602706776145664,0.688145637512207,0.3514304459095001,-0.5981036424636841,1.0237447023391724,0.07724197953939438,0.5727853775024414,-0.8160579800605774,-0.07681474089622498,0.1010274887084961,0.06361657381057739,0.5352831435448445,-0.20235932235583182,-0.22587984029310684,0.788353402558879,-0.609899825897228,0.09437140163685805,1.9783480233209367
1761602706786189824,0.6981897354125977,0.515562117099762,-0.6819719076156616,0.9594385027885437,0.07749667763710022,0.5682665109634399,-0.8191870450973511,-0.09029880911111832,0.07794320583343506,-0.024761319160461426,0.5311370746285383,-0.19965823135328647,-0.22481783233322766,0.7921407616140242,-0.604397621733475,0.09432121907592228,1.9897015914486895
1761602706796234752,0.7082347869873047,0.23171566426753998,-0.5745468139648438,1.0275436639785767,0.07790003716945648,0.5642143487930298,-0.8219451308250427,-0.05185329169034958,-0.042485833168029785,-0.083831787109375,0.5268586140671181,-0.19718410861732782,-0.22393269678821168,0.7958597233151903,-0.5994813299241326,0.09449298064412863,2.0012868756775446
1761602706806278656,0.7182786464691162,-0.1862136721611023,-0.4635816812515259,1.0096409320831299,0.07947060465812683,0.5632873177528381,-0.8224304914474487,-0.03508280962705612,-0.08434444665908813,-0.03306877613067627,0.5221796169927722,-0.19624409382968327,-0.22421646301805775,0.7990893783597407,-0.5983589777393454,0.09632989638288587,2.0137062356994657
1761602706816323840,0.7283236980438232,-0.3640671372413635,-0.4470955729484558,0.8966571092605591,0.0811697244644165,0.5649101138114929,-0.8211504220962524,-0.0571676641702652,-0.08196943998336792,0.007200837135314941,0.5175591048965291,-0.1962755791401509,-0.2256117707767393,0.8016906147542261,-0.6003243054375886,0.09852870943176077,2.0255810815095714
1761602706826367744,0.7383677959442139,-0.4391786754131317,-0.4994693100452423,0.8388441801071167,0.08217256516218185,0.5675212740898132,-0.8192480206489563,-0.07417695969343185,-0.11018490791320801,-0.014080226421356201,0.5131641588485083,-0.19639527640215895,-0.2276068927823967,0.8039194457888768,-0.6034921833647272,0.09996807847308924,2.0364790755691877
1761602706836412672,0.7484126091003418,-0.49172934889793396,-0.5401843786239624,0.8501001000404358,0.08273961395025253,0.5705927610397339,-0.8170545101165771,-0.06323888152837753,-0.1284388303756714,-0.0076982975006103516,0.5087254919512618,-0.1964541119445981,-0.22995332890088868,0.8060555535869455,-0.6072274488634702,0.10092168688828115,2.0472456852978382
1761602706846456832,0.7584567070007324,-0.4886922836303711,-0.4947468042373657,0.8469905853271484,0.0834050253033638,0.5740971565246582,-0.8145281672477722,-0.0518803671002388,-0.1058812141418457,0.02650320529937744,0.504171142957192,-0.19666014764622852,-0.2325096056115038,0.8081309248193198,-0.6115010513837102,0.10204109576846399,2.0582499089831687
1761602706856501760,0.7685017585754395,-0.5157415270805359,-0.4800836741924286,0.9298679828643799,0.08454293012619019,0.5772971510887146,-0.8121456503868103,-0.05791635811328888,-0.0544089674949646,0.0013241171836853027,0.4995236932068921,-0.1969360234945379,-0.2348262830404019,0.8102771408875477,-0.6154146625304233,0.10372464799700357,2.0696778050130975
1761602706866545664,0.778545618057251,-0.4215620458126068,-0.6411535739898682,0.9253517985343933,0.08557013422250748,0.5805456638336182,-0.8097187876701355,-0.008223339915275574,0.031423330307006836,-0.021457970142364502,0.49456041303657816,-0.19707291810374641,-0.23728225022503277,0.812569667591882,-0.6193986699374782,0.10528803846972092,2.0818195449379453
1761602706876590848,0.788590669631958,-0.05786691606044769,-0.8261891603469849,0.8233063817024231,0.0846279039978981,0.5817000865936279,-0.8089889883995056,0.03895300626754761,0.06508946418762207,-0.018983423709869385,0.4898707021524168,-0.19565895605834915,-0.23921344963931387,0.8151817649863975,-0.6208171958427944,0.10423036450693388,2.092842326152107
1761602706886635776,0.798635721206665,-0.06825244426727295,-0.7807327508926392,0.875471830368042,0.08285284787416458,0.5812591314315796,-0.8094894289970398,0.018496021628379822,-0.034841954708099365,-0.02037501335144043,0.48543593720862205,-0.1933895526427835,-0.24053223189519843,0.8179832489362368,-0.620275240090839,0.10199680170746653,2.103120243866638
1761602706896679680,0.8086795806884766,-0.3379872441291809,-0.6825371980667114,1.0691502094268799,0.08263041079044342,0.5821085572242737,-0.8089016079902649,-0.027698777616024017,-0.09072983264923096,-0.04153168201446533,0.48035321015093924,-0.19207275221885814,-0.24219258214459757,0.8207993432130017,-0.621319480196441,0.10179826524998795,2.115329770194565
1761602706906724608,0.8187246322631836,-0.4554651379585266,-0.7818408608436584,1.1033326387405396,0.08329179883003235,0.5845227837562561,-0.8070907592773438,-0.07471634447574615,-0.05768263339996338,-0.08763879537582397,0.4745279288462047,-0.1914536840601674,-0.2445405946576051,0.8236312718273922,-0.62429180016805,0.10283599378094042,2.1294203756596817
1761602706916768768,0.8287687301635742,-0.332161545753479,-0.9707985520362854,0.926252543926239,0.0822267159819603,0.5869504809379578,-0.8054364323616028,-0.1151857003569603,-0.03018784523010254,-0.13397085666656494,0.46882315139716757,-0.1900523770247389,-0.24730926997034075,0.8263915056748032,-0.627287067648072,0.10173717377152279,2.142539270767602
1761602706926813952,0.8388137817382812,-0.28775840997695923,-1.0825644731521606,0.7808336019515991,0.07879820466041565,0.588658332824707,-0.8045322895050049,-0.12809935212135315,-0.11966419219970703,-0.15591692924499512,0.46372809979135826,-0.18747254772906205,-0.25017574161719647,0.8289887058390307,-0.6293981070490974,0.097631485350562,2.1533479412979966
1761602706936857600,0.8488576412200928,-0.4925328195095062,-1.0859408378601074,0.7660404443740845,0.07455893605947495,0.5910503268241882,-0.8031814694404602,-0.12996360659599304,-0.24144095182418823,-0.14651024341583252,0.45882361826064133,-0.1847674197672944,-0.2535157823933039,0.8313072531909275,-0.6323603336210046,0.09256422131191779,2.1632470522469665
1761602706946902784,0.8589026927947998,-0.895538866519928,-1.0119811296463013,0.7462904453277588,0.07068394869565964,0.5960501432418823,-0.7998299598693848,-0.15549227595329285,-0.2979392409324646,-0.12737029790878296,0.453662199380051,-0.18295860707861017,-0.2580914084476593,0.8331299198647631,-0.6385728928695314,0.08814472788972737,2.1734857746005276
1761602706956946944,0.8689467906951904,-1.3329004049301147,-0.9409909248352051,0.6632013916969299,0.06709357351064682,0.6044737696647644,-0.7937946319580078,-0.17402717471122742,-0.3245055079460144,-0.07441520690917969,0.44840378804071596,-0.18230370989429837,-0.2643256168491434,0.8341651161294072,-0.6491051223713525,0.0843221638439621,2.183512005641329
1761602706966991616,0.8789916038513184,-1.7459217309951782,-0.8398134112358093,0.570694625377655,0.06380782276391983,0.6163198947906494,-0.7849066257476807,-0.16968855261802673,-0.3261587619781494,-0.044881582260131836,0.44319885379865864,-0.18285887773226003,-0.2722302785839091,0.8342830392349293,-0.664060939650153,0.08111515236071543,2.1929326792086563
1761602706977035776,0.889035701751709,-1.9677813053131104,-0.7102855443954468,0.5096316337585449,0.06114567071199417,0.6306142807006836,-0.7736839652061462,-0.16101446747779846,-0.2938375473022461,-0.039639949798583984,0.43814615807912155,-0.1845151185519265,-0.28126886923833205,0.8335886587292289,-0.6823444304883196,0.07886791174771271,2.201751037490547
1761602706987080704,0.899080753326416,-1.9687893390655518,-0.6485782265663147,0.4616779386997223,0.05903308466076851,0.6456228494644165,-0.7613713145256042,-0.1654021143913269,-0.232063889503479,-0.06203871965408325,0.43329183213069433,-0.18672050357456432,-0.29060248066961003,0.832432546475191,-0.7018386363430119,0.07738039773168881,2.210085906445045
1761602706997125888,0.909125804901123,-1.6470890045166016,-0.6738593578338623,0.37416204810142517,0.05704965814948082,0.659225583076477,-0.7497779130935669,-0.17239083349704742,-0.13807696104049683,-0.10724717378616333,0.4288806360450657,-0.1886815273510475,-0.299182781910847,0.8312341633503553,-0.7197884407250249,0.07594241563169024,2.217517833630602
1761602707007169792,0.9191696643829346,-1.2694485187530518,-0.8152899742126465,0.26075345277786255,0.053471941500902176,0.6700199842453003,-0.7404146790504456,-0.18962611258029938,-0.03488820791244507,-0.19172942638397217,0.42501705521221195,-0.18913491196908058,-0.3066278528466915,0.830402152657817,-0.7342357083496076,0.072093747306012,2.2232076486724996
1761602707017214720,0.9292147159576416,-0.9247475862503052,-1.0291482210159302,0.22169464826583862,0.04825752228498459,0.6778685450553894,-0.7335975766181946,-0.1824432909488678,0.005343735218048096,-0.24372780323028564,0.4215869139776772,-0.1879553877218734,-0.31284815786420134,0.8300983154980767,-0.7448594966480204,0.06568736686808425,2.2274050197489594
1761602707027258624,0.9392585754394531,-1.0131882429122925,-1.2296171188354492,0.2639118731021881,0.04153165966272354,0.6847629547119141,-0.7275814414024353,-0.17736540734767914,-0.08275794982910156,-0.2884707450866699,0.41785665868709604,-0.185583853635333,-0.3190108242229815,0.830172581711055,-0.7542784103054258,0.057019924496538685,2.2315558966175044
1761602707037303808,0.9493036270141602,-1.3280494213104248,-1.198312520980835,0.24443955719470978,0.0343741811811924,0.6929281949996948,-0.7201867699623108,-0.1385459452867508,-0.20055758953094482,-0.2434362769126892,0.41374921493966843,-0.18325284853758556,-0.32607514434018997,0.8300030590045117,-0.765542406251931,0.04769333909689021,2.23591888422227
1761602707047347712,0.9593477249145508,-1.8827989101409912,-1.0218322277069092,0.14713962376117706,0.027802348136901855,0.704463005065918,-0.7091959118843079,-0.19221578538417816,-0.28020763397216797,-0.16845905780792236,0.4095638180179609,-0.18228703659530393,-0.3349230808791534,0.8287673826401079,-0.7816662465785911,0.03918257018239044,2.2397702067441045
1761602707057392896,0.9693927764892578,-2.161475896835327,-0.9096665978431702,0.025803884491324425,0.02156532183289528,0.7188205122947693,-0.6948611736297607,-0.257405161857605,-0.3488711714744568,-0.07505148649215698,0.40573313075078155,-0.18259266821687523,-0.34529600376017144,0.8263239188453434,-0.8021041595229508,0.031025479500655696,2.2418901674316625
1761602707067436800,0.9794366359710693,-2.377049207687378,-0.8057649731636047,0.04178817570209503,0.015874309465289116,0.7343869805335999,-0.6785452961921692,-0.28561916947364807,-0.40758949518203735,0.0013297796249389648,0.4020166858423381,-0.18367305113086285,-0.35635874323101474,0.8231981477664521,-0.8247630496615577,0.023390352458318664,2.243241512282872
1761602707077481728,0.9894816875457764,-2.455883026123047,-0.7013640403747559,-0.049729492515325546,0.010909339413046837,0.7507878541946411,-0.6604532599449158,-0.2845909893512726,-0.3612310290336609,0.06713056564331055,0.39837352698102674,-0.18551191693143304,-0.36791125660298624,0.8194663573799591,-0.8492540289998834,0.016516456601539747,2.244067505458394
1761602707087525888,0.999525785446167,-2.2750818729400635,-0.7059577703475952,-0.2507382333278656,0.005105175543576479,0.7663835883140564,-0.6423628926277161,-0.2688533365726471,-0.28478574752807617,0.02635037899017334,0.39540421472289017,-0.18704388993776072,-0.3792533831524562,0.8153753329213673,-0.8731924139078922,0.00794732729801529,2.2422544603842933
1761602707097570560,1.009570598602295,-1.9294158220291138,-0.6947579383850098,-0.3928848206996918,-0.0018729453440755606,0.7798287272453308,-0.6259902119636536,-0.2312203347682953,-0.2057778239250183,-0.032014548778533936,0.39343200000517514,-0.18775637368141354,-0.389554160368662,0.8112992213820525,-0.8943921336485339,-0.0029919632981516317,2.2371023045318728
1761602707107614720,1.0196146965026855,-1.4914706945419312,-0.7575821280479431,-0.43903979659080505,-0.009629596956074238,0.790469765663147,-0.6124253273010254,-0.22988761961460114,-0.10104721784591675,-0.1304030418395996,0.39209270734257445,-0.18739411806825307,-0.3983349977113743,0.8077598749262668,-0.9115756211130064,-0.015722411185478118,2.230074010812035
1761602707117659904,1.0296597480773926,-1.0745524168014526,-0.8829549551010132,-0.4873817563056946,-0.018315348774194717,0.7981827855110168,-0.6021369099617004,-0.19977852702140808,-0.056376755237579346,-0.20662468671798706,0.39111613631821884,-0.18565047004408125,-0.40554339789151034,0.8050445137635076,-0.9242725780122429,-0.030407874535128027,2.2219476010093078
1761602707127704832,1.0397047996520996,-0.8389646410942078,-0.9537758231163025,-0.5274623036384583,-0.028008367866277695,0.8037487864494324,-0.5943092703819275,-0.148840993642807,-0.08263367414474487,-0.2756859064102173,0.3903874285205435,-0.1827021113684668,-0.4116616502211195,0.8029647147601746,-0.9335694597872214,-0.047092756254749714,2.2127927824017255
1761602707137748736,1.0497486591339111,-0.7636333107948303,-0.8773714900016785,-0.5199653506278992,-0.03776632994413376,0.8082642555236816,-0.5876075029373169,-0.13619913160800934,-0.12546396255493164,-0.2988365888595581,0.38987154978657995,-0.17942949726840662,-0.417134627364331,0.8011266867641945,-0.9411983217962545,-0.06418307395010982,2.203105265965911
1761602707147793664,1.0597937107086182,-0.8461002111434937,-0.749721109867096,-0.521930456161499,-0.046737682074308395,0.8127152323722839,-0.5807836055755615,-0.14788818359375,-0.15310829877853394,-0.2674219608306885,0.38953724203768114,-0.17664155053836164,-0.4223812978982591,0.799157412334002,-0.9487971086991305,-0.08030044578857899,2.1932509018684323
1761602707157837824,1.0698378086090088,-0.976054847240448,-0.6767370700836182,-0.5611331462860107,-0.05529709532856941,0.8177328109741211,-0.5729357004165649,-0.1300666779279709,-0.15797322988510132,-0.23727548122406006,0.3893697603826671,-0.17441321125987985,-0.42791608114526697,0.796780437120731,-0.9574610395571254,-0.0962173323615615,2.18252837366544
1761602707167882752,1.0798826217651367,-1.0145620107650757,-0.6353334188461304,-0.6237776279449463,-0.0639263466000557,0.8230853080749512,-0.5643084645271301,-0.0751727893948555,-0.17460203170776367,-0.21051758527755737,0.38945723973649854,-0.17247066374941541,-0.43370454880159354,0.7940260599780943,-0.9668225221252422,-0.11280174752917216,2.1703194422075947
1761602707177926656,1.0899267196655273,-1.0266587734222412,-0.6286468505859375,-0.6123867034912109,-0.07262693345546722,0.8283832669258118,-0.5554335117340088,-0.021275639533996582,-0.20011794567108154,-0.18168801069259644,0.3896756251355946,-0.1705918238083826,-0.43952437037431275,0.7911192084754217,-0.9762153551044174,-0.1300195462739449,2.157127684707667
1761602707187971840,1.0999717712402344,-1.0473496913909912,-0.5966494679450989,-0.5361436009407043,-0.08084063977003098,0.8336923122406006,-0.546280026435852,0.018035471439361572,-0.18983250856399536,-0.15452557802200317,0.38970110046692763,-0.16890311541714964,-0.4453444859722856,0.7882087630197132,-0.9857605197281699,-0.14691761026249991,2.144246037304977
1761602707198015744,1.110015630722046,-0.9332131147384644,-0.42410531640052795,-0.47647255659103394,-0.08785399049520493,0.8386940360069275,-0.5374701023101807,0.03864438831806183,-0.14881360530853271,-0.10944151878356934,0.38967496973148585,-0.16768816126273256,-0.45071679489433186,0.7854225283016653,-0.9948807119546917,-0.1620254780458408,2.132379347266862
1761602707208060672,1.120060682296753,-0.7908711433410645,-0.34509414434432983,-0.44507893919944763,-0.09378319978713989,0.842890739440918,-0.5298490524291992,0.03451806306838989,-0.08817577362060547,-0.12716388702392578,0.3899296281840656,-0.16684544604351761,-0.45523409233797507,0.7828662083349953,-1.0026331091239906,-0.17518542484042318,2.121196738163777
1761602707218104832,1.1301047801971436,-0.6489691138267517,-0.42647820711135864,-0.3698001503944397,-0.09925196319818497,0.8463101983070374,-0.5233624577522278,0.05519980937242508,0.012622296810150146,-0.19956845045089722,0.39004190185581494,-0.16582186938627402,-0.4591534434728238,0.7807359903587768,-1.0090199566283393,-0.18741724734988036,2.111268427181304
1761602707228149760,1.1401495933532715,-0.4929547905921936,-0.45534980297088623,-0.2748755216598511,-0.10436592996120453,0.8489398956298828,-0.5180819630622864,0.11881599575281143,0.07432365417480469,-0.22657746076583862,0.38984176724196956,-0.16444181451679626,-0.46251259608871853,0.7791434426577256,-1.0139761215863414,-0.1987862821813675,2.103083161377646
1761602707238193664,1.150193691253662,-0.49311357736587524,-0.4262797236442566,-0.08059383928775787,-0.10823602229356766,0.8512522578239441,-0.5134730339050293,0.14746636152267456,0.08231097459793091,-0.2779698371887207,0.389101509806684,-0.16320888976070683,-0.4654313514709114,0.7780337783811676,-1.018367089919637,-0.20775065431458425,2.097851136170141
1761602707248238848,1.1602387428283691,-0.543427050113678,-0.2671523988246918,0.10057035088539124,-0.10991713404655457,0.8539188504219055,-0.5086656212806702,0.17176103591918945,0.09941971302032471,-0.27588027715682983,0.38780779584022795,-0.16288304034263754,-0.46811997818335926,0.7771343725371603,-1.0234698244798683,-0.2128169880101991,2.0960255327107413
1761602707258283776,1.1702837944030762,-0.5928517580032349,-0.162130206823349,0.1650247871875763,-0.10976380854845047,0.8569940328598022,-0.5035008192062378,0.15625734627246857,0.11195427179336548,-0.27678781747817993,0.386293519742215,-0.16351814482617869,-0.4706499729859076,0.7762265783756582,-1.02940794076795,-0.21464302506047,2.096342594767052
1761602707268327680,1.1803276538848877,-0.42721670866012573,-0.19252513349056244,0.18758603930473328,-0.10910587012767792,0.8598377704620361,-0.4987732768058777,0.1339624524116516,0.11213177442550659,-0.2577879726886749,0.3847890445951359,-0.16430100238122314,-0.4728832160702573,0.7754508108605265,-1.034951897985823,-0.21535619538989625,2.0974600428593573
1761602707278372864,1.1903727054595947,-0.15735335648059845,-0.1624574363231659,0.34245941042900085,-0.10788469016551971,0.8615726828575134,-0.4960375726222992,0.1441853642463684,0.0653071403503418,-0.2341260015964508,0.3830964186102169,-0.1647090444664064,-0.4741857733809153,0.7754068726053698,-1.0383596820650807,-0.2141577776514845,2.101124879819485
1761602707288416768,1.2004168033599854,0.14371353387832642,0.046456094831228256,0.5681522488594055,-0.1042063981294632,0.862132728099823,-0.4958508312702179,0.1594584882259369,0.08667391538619995,-0.19819515943527222,0.38115518318805264,-0.1655985148445464,-0.4739743779578009,0.7763028066982082,-1.0394639507186942,-0.20714231219737708,2.109954960065443
1761602707298461696,1.2104616165161133,0.5388798713684082,-0.001982111018151045,0.5718995928764343,-0.09887240082025528,0.8610523343086243,-0.49881163239479065,0.11934972554445267,0.18437302112579346,-0.19378480315208435,0.37923877668963957,-0.16653373170456598,-0.472081242703138,0.7781925719156756,-1.037335473614675,-0.19567949821388567,2.1227337904839443
1761602707308505856,1.220505714416504,0.9545279741287231,-0.3464129865169525,0.40620118379592896,-0.09554550051689148,0.8577336668968201,-0.5051376223564148,0.06630966812372208,0.19342905282974243,-0.2117813229560852,0.37755814997663234,-0.1655793910036462,-0.46905719918499783,0.7810369299049458,-1.0308449643865278,-0.18693898402230014,2.134912626927422
1761602707318550784,1.230550765991211,1.122839093208313,-0.6751124858856201,0.3984730839729309,-0.09486813843250275,0.8526932597160339,-0.5137258172035217,0.04329344630241394,0.02320694923400879,-0.1827157735824585,0.37567746807294145,-0.1624442960850546,-0.46556303770245716,0.7846842030732414,-1.0211192130763302,-0.18260964438560578,2.1460910107829942
1761602707328594688,1.2405946254730225,1.0741593837738037,-0.639323890209198,0.5452987551689148,-0.09445159882307053,0.8473745584487915,-0.522527813911438,0.01272553950548172,-0.171211838722229,-0.08526027202606201,0.3731321576872688,-0.15874218621272618,-0.46210066205227096,0.7886927868446065,-1.0110212144922504,-0.17882801805238197,2.158634542601697
1761602707338639616,1.2506396770477295,0.9008954763412476,-0.3501242399215698,0.6189442276954651,-0.09206029772758484,0.8426674604415894,-0.5305057168006897,-0.06539511680603027,-0.25920194387435913,0.09508097171783447,0.3704231201139354,-0.15627954437272518,-0.4586107751188714,0.7924894216728628,-1.0022183421858128,-0.17182199165613798,2.172829301570369
1761602707348683520,1.260683536529541,0.7089307904243469,-0.11290822923183441,0.5099464058876038,-0.08838777989149094,0.8389160633087158,-0.5370358228683472,-0.20836515724658966,-0.21475529670715332,0.17537200450897217,0.3682477749321553,-0.1552412974394399,-0.45539240378655144,0.7955573188682645,-0.9952885440103834,-0.16312212230095693,2.185811441049647
1761602707358728704,1.270728588104248,0.7771294713020325,0.00677832355722785,0.35056501626968384,-0.0850343182682991,0.8353471159934998,-0.5431061387062073,-0.293032705783844,-0.12827014923095703,0.12838757038116455,0.36699361349745746,-0.15469205542312642,-0.45223589596963126,0.7980405152215574,-0.9887639420288031,-0.15530944192270102,2.1956962674908587
1761602707368773632,1.280773639678955,1.0365909337997437,-0.04062620922923088,0.23009292781352997,-0.08269202709197998,0.8306820392608643,-0.5505719184875488,-0.2824660837650299,-0.08857083320617676,0.03772401809692383,0.36650846026087347,-0.15365225996908075,-0.44844734884636334,0.8005982740708495,-0.9803316357880434,-0.14907865715765933,2.203307077655411
1761602707378817792,1.2908177375793457,1.4714351892471313,-0.16045480966567993,0.2066037654876709,-0.08150225132703781,0.8238702416419983,-0.5608879327774048,-0.1987254023551941,-0.09410333633422852,-0.07145154476165771,0.36642049994037235,-0.15143115410289873,-0.4434237533390351,0.8038532585313767,-0.9682059600311146,-0.14429936795380083,2.2102361537935047
1761602707388862720,1.3008625507354736,1.7086498737335205,-0.31559646129608154,0.3388422131538391,-0.08063749223947525,0.8149019479751587,-0.5739619135856628,-0.10368864238262177,-0.12016934156417847,-0.17561078071594238,0.3660178939614878,-0.14810160000938907,-0.43713266228855274,0.8080914088273257,-0.952560039352204,-0.13957919586277373,2.2189045231513465
1761602707398906624,1.3109066486358643,1.6424143314361572,-0.3700660169124603,0.4738557040691376,-0.07934605330228806,0.8053792119026184,-0.5874252915382385,-0.043655045330524445,-0.08984881639480591,-0.1895674467086792,0.3648255115328247,-0.1444677932052177,-0.43060004377465844,0.8127822182480895,-0.9363148940122752,-0.13426168394521484,2.2298159524729217
1761602707408951808,1.3209517002105713,1.4380830526351929,-0.3468696177005768,0.43816855549812317,-0.07775940746068954,0.7965452671051025,-0.5995573997497559,-0.02935728430747986,-0.09509873390197754,-0.07651376724243164,0.3632502355254728,-0.14116385534979484,-0.42461047034771987,0.8172074167710011,-0.9215592186474956,-0.1289747443659205,2.2409554299152057
1761602707418995712,1.3309955596923828,1.1509748697280884,-0.20559406280517578,0.361230731010437,-0.07626146823167801,0.7889388203620911,-0.6097210645675659,-0.06717117130756378,-0.18266135454177856,0.016322016716003418,0.3619377332220161,-0.13849875901368194,-0.4194729506261994,0.8208907956461036,-0.9090801018825503,-0.12442981115929942,2.2501927423368424
1761602707429040640,1.3410406112670898,0.8210415244102478,-0.05340638756752014,0.3370817005634308,-0.08749765157699585,0.7732177972793579,-0.6280752420425415,-0.08274466544389725,-0.2499786615371704,0.088905930519104,0.36490858280698485,-0.12895886394665368,-0.41149969926779767,0.8251541927475444,-0.8838998364657153,-0.13841990839091337,2.2432675359888044
1761602707439084800,1.3510847091674805,0.6933965682983398,0.020104214549064636,0.37314364314079285,-0.09139793366193771,0.7636551856994629,-0.6391221880912781,-0.08534462749958038,-0.2693009376525879,0.13243883848190308,0.365870721646048,-0.12428311545850232,-0.4061928381020946,0.8280698549262501,-0.8689558042565818,-0.14204235757705733,2.2435031523549935
1761602707449129728,1.3611297607421875,0.7486329078674316,0.03897031396627426,0.37409812211990356,-0.0922769233584404,0.7562386989593506,-0.647756040096283,-0.08199369162321091,-0.21149992942810059,0.17007970809936523,0.36599515059059345,-0.12145784481656681,-0.4017087993818564,0.8306174948489744,-0.8575451999978781,-0.14150419320448068,2.2467507660153103
1761602707459173632,1.371173620223999,0.8428683280944824,-0.07149440795183182,0.3424837589263916,-0.09241633117198944,0.7492101788520813,-0.6558530926704407,-0.05640263110399246,-0.09552371501922607,0.19453418254852295,0.3657809569409535,-0.11900248149021751,-0.3973812628576924,0.8331450972170285,-0.8468687977433582,-0.1399884432006331,2.251019358972443
1761602707469218816,1.381218671798706,0.9306541085243225,-0.26725244522094727,0.3206077516078949,-0.09325040131807327,0.7420428991317749,-0.6638348698616028,-0.005657084286212921,-0.023002982139587402,0.11863827705383301,0.3652000896556393,-0.11603092941703975,-0.39321673253122374,0.835790832645197,-0.836112730067162,-0.13955911694800419,2.2556135646616906
1761602707479263744,1.391263723373413,0.8792436718940735,-0.3655250072479248,0.32911643385887146,-0.09483062475919724,0.7348992228507996,-0.6715134978294373,0.06455718725919724,-0.05269402265548706,0.07005774974822998,0.3642169344154454,-0.11256031010122,-0.3893243326860258,0.838512289614854,-0.8255180607214481,-0.14029154266001578,2.2605301943852014
1761602707489307648,1.4013075828552246,0.6388041973114014,-0.3370608687400818,0.3140629231929779,-0.09633100032806396,0.7289688587188721,-0.6777350306510925,0.08358991146087646,-0.10161900520324707,0.0807044506072998,0.36297391768021503,-0.10942827769721156,-0.3862096923246431,0.8409028068831954,-0.8168144150281588,-0.1411909129864618,2.2654354154695318
1761602707499352576,1.4113526344299316,0.42164599895477295,-0.2948172390460968,0.24891294538974762,-0.09757735580205917,0.7247850894927979,-0.6820302605628967,0.04812360554933548,-0.09761834144592285,0.094460129737854,0.3617752164111185,-0.1070024480700838,-0.3841032866850625,0.8426944839993871,-0.8107224443547584,-0.1421046157300389,2.269500801595965
1761602707509396736,1.4213967323303223,0.3380240499973297,-0.2945897877216339,0.17500197887420654,-0.09900155663490295,0.721692681312561,-0.6850972771644592,0.014269523322582245,-0.03951805830001831,0.072609543800354,0.3607876585422945,-0.10493037591793923,-0.38267606914075286,0.8440265588678473,-0.806244556870182,-0.14351383207899743,2.2723959038093615
1761602707519441664,1.4314415454864502,0.36985501646995544,-0.3337133228778839,0.1289260983467102,-0.10089634358882904,0.7187855839729309,-0.6878715753555298,-0.0007271915674209595,0.05088299512863159,0.021062493324279785,0.35995943401265973,-0.1027660650173158,-0.38144902476069137,0.8452012082026549,-0.8020539570608413,-0.14564050212825805,2.2745090516132014
1761602707529485824,1.4414856433868408,0.43896350264549255,-0.36884361505508423,0.11007171124219894,-0.10328467935323715,0.7155296802520752,-0.6909048557281494,-0.002763904631137848,0.1222388744354248,-0.021497488021850586,0.35919028518491974,-0.10029460453936054,-0.38011652080183334,0.8464246278235398,-0.797382011516445,-0.148392988827795,2.2763273599428575
1761602707539530752,1.4515306949615479,0.4657403230667114,-0.3535049259662628,0.11786074936389923,-0.1057518720626831,0.7119376063346863,-0.6942343711853027,-0.014472141861915588,0.14246296882629395,-0.06028217077255249,0.3584404787050925,-0.09770710835722503,-0.3785975733320415,0.8477249983724018,-0.7922535527505215,-0.1511666951036947,2.2782137631323454
1761602707549574656,1.4615745544433594,0.4019187390804291,-0.2934762239456177,0.15618762373924255,-0.10780100524425507,0.7085070610046387,-0.6974213719367981,-0.050829365849494934,0.12620973587036133,-0.08306562900543213,0.3576364735207637,-0.09535909801230065,-0.37708877496120446,0.8490033765951366,-0.7873804361200646,-0.15335717581336966,2.2804204891436846
1761602707559619584,1.4716196060180664,0.26879560947418213,-0.18888990581035614,0.19070787727832794,-0.10896631330251694,0.7058478593826294,-0.699932336807251,-0.09809546917676926,0.1042259931564331,-0.08549857139587402,0.3567617512227106,-0.09364261688361318,-0.37585223505303283,0.8501101972606935,-0.7836193375935756,-0.15444146819783963,2.2829896827466953
1761602707569663744,1.481663703918457,0.14040783047676086,-0.08372674137353897,0.20376749336719513,-0.10924062132835388,0.704171895980835,-0.7015756964683533,-0.14530649781227112,0.08141160011291504,-0.08210045099258423,0.3559338022531882,-0.09266784686427472,-0.37499976963987963,0.8509400794373042,-0.781256188794293,-0.15446715726546822,2.2855443853643487
1761602707579708928,1.491708755493164,0.023102834820747375,-0.008470937609672546,0.24094584584236145,-0.1087699830532074,0.7033693790435791,-0.7024533152580261,-0.1725563108921051,0.0558316707611084,-0.09046965837478638,0.35511512398221295,-0.09231097275723595,-0.3745023705835902,0.8515397517747679,-0.7801265173138809,-0.15362298940317792,2.2881341284256784
1761602707589753600,1.501753568649292,-0.10044094175100327,0.053698960691690445,0.27538636326789856,-0.10758452117443085,0.7034821510314941,-0.7025229334831238,-0.17052218317985535,0.06243276596069336,-0.08006978034973145,0.3542330361221403,-0.09253465699691232,-0.3744006715404228,0.8519275588780181,-0.7802852311628691,-0.15195965114251675,2.290895658343382
1761602707599797760,1.5117976665496826,-0.15978729724884033,0.0743383914232254,0.2796957492828369,-0.1060275062918663,0.7043005228042603,-0.7019394636154175,-0.162603497505188,0.11141908168792725,-0.04929649829864502,0.3533059482129849,-0.09311913600753365,-0.374645293378411,0.8521412652945173,-0.7814373415711837,-0.14991605557681573,2.2936727246242827
1761602707609842688,1.5218427181243896,-0.08581265807151794,0.0976029708981514,0.2910035252571106,-0.10436411947011948,0.7050864696502686,-0.7013994455337524,-0.13709095120429993,0.13582539558410645,-0.013810515403747559,0.3524125435963548,-0.09376180954714877,-0.3748453114952605,0.8523526661062905,-0.7825450877518346,-0.14771041086600248,2.2964545482255168
1761602707619886592,1.5318865776062012,-0.03990056738257408,0.1254311352968216,0.3634011745452881,-0.10227469354867935,0.7054783701896667,-0.7013131976127625,-0.10309335589408875,0.12380629777908325,0.03932595252990723,0.3514063439290057,-0.09445382593613717,-0.3747290521060519,0.8527427940750224,-0.7830978507056954,-0.14481228629941856,2.2999483439561934
1761602707629931776,1.5419316291809082,-0.013519558124244213,0.060340553522109985,0.395080029964447,-0.09983284026384354,0.7057318687438965,-0.7014099359512329,-0.06847158819437027,0.11842584609985352,0.06662905216217041,0.3501340590208799,-0.09516460177420216,-0.3744846376323532,0.8532942235540132,-0.7834556630139831,-0.1413820515410534,2.3043471148183197
1761602707639975680,1.5519757270812988,0.07530774921178818,0.03960547596216202,0.4090157449245453,-0.09768405556678772,0.7057216763496399,-0.7017226815223694,-0.02066311240196228,0.07844275236129761,0.043748438358306885,0.34869065592301385,-0.09558469700903058,-0.37416870638202976,0.8539766858975716,-0.7834412551907789,-0.13831718849086777,2.3090765920837644
1761602707650020608,1.5620205402374268,0.21178223192691803,0.10039985179901123,0.46818530559539795,-0.0948992371559143,0.7049378156661987,-0.7028917074203491,0.007023893296718597,0.010302603244781494,0.0732836127281189,0.34719024641101853,-0.09608090078218719,-0.3732594235688405,0.8549296787980443,-0.782335476336343,-0.13420109639026245,2.3146618179346365
1761602707660064768,1.5720646381378174,0.2705065608024597,0.0045433323830366135,0.5271415710449219,-0.09164800494909286,0.7035418152809143,-0.7047194838523865,-0.04307182878255844,0.028834223747253418,0.052925050258636475,0.3454107025642209,-0.09652222880066089,-0.3719189798382127,0.8561840408848194,-0.780369159564465,-0.1293231153807571,2.321423804431974
1761602707670109696,1.5821096897125244,0.28417444229125977,-0.16786280274391174,0.5403929352760315,-0.08911242336034775,0.701939046382904,-0.706640362739563,-0.04774366319179535,0.07223087549209595,0.02275669574737549,0.34321494006846104,-0.09638278124027201,-0.3706618177610487,0.8576268464810716,-0.7781163678141628,-0.12544499695813868,2.3287670658438424
1761602707680153600,1.592153549194336,0.24830926954746246,-0.2100367695093155,0.4998948276042938,-0.08746197819709778,0.7003730535507202,-0.708398163318634,-0.010896153748035431,0.03288799524307251,0.022240936756134033,0.3408395157809889,-0.09574907352492713,-0.36963907607356816,0.859085214867955,-0.775920027196929,-0.12284277578337675,2.3359395571613906
1761602707690198784,1.602198600769043,0.09570057690143585,-0.20509395003318787,0.4752640724182129,-0.08611615747213364,0.6994549632072449,-0.7094693183898926,-0.019535697996616364,-0.008964240550994873,0.03590059280395508,0.33855739927762435,-0.09518747357901114,-0.36905917993515586,0.8602984739248168,-0.7746345529510821,-0.12079018015162837,2.342428451816823
1761602707700243712,1.61224365234375,-0.1306762844324112,-0.2067987471818924,0.48934483528137207,-0.0846702829003334,0.6999304294586182,-0.709174394607544,-0.0551459938287735,-0.003488779067993164,0.046454668045043945,0.3361734441559151,-0.09500753205307942,-0.36930524611240856,0.8611472414832845,-0.7753000508052954,-0.11883025606811141,2.3486560524962043
1761602707710287872,1.6222877502441406,-0.3107120990753174,-0.24318444728851318,0.4351838529109955,-0.083428755402565,0.7019208073616028,-0.7073519825935364,-0.07332475483417511,0.03399527072906494,0.06054717302322388,0.33370379782130727,-0.09509065624807742,-0.3705155703079882,0.8615786048457457,-0.778090716290692,-0.11740278839551298,2.35436866489772
1761602707720332544,1.6323325634002686,-0.388586163520813,-0.29509150981903076,0.3491489291191101,-0.08306215703487396,0.704742431640625,-0.7045841813087463,-0.08554747700691223,0.04443359375,0.07653242349624634,0.33142699783694207,-0.09503771076304703,-0.3723919310298112,0.8616544131345345,-0.7820600282732725,-0.11734657938187688,2.358778352349015
1761602707730376704,1.6423766613006592,-0.42748963832855225,-0.29182168841362,0.36106738448143005,-0.08312620222568512,0.7079135179519653,-0.7013903856277466,-0.08865725249052048,0.030856013298034668,0.07738220691680908,0.3292378581566623,-0.09489482881075434,-0.3745661208404862,0.8615669426336492,-0.786539709772789,-0.11796604123070606,2.362574938194795
1761602707740421888,1.6524217128753662,-0.4594613015651703,-0.30454403162002563,0.3646697402000427,-0.08299089223146439,0.7113906145095825,-0.6978796124458313,-0.0968187004327774,0.06772315502166748,0.0965307354927063,0.32695526662377744,-0.0948848655145506,-0.3769045673303754,0.8614175181926361,-0.7914749086868718,-0.11836278159141843,2.3665796188309867
1761602707750465536,1.6624655723571777,-0.3531132936477661,-0.36855149269104004,0.2708577513694763,-0.0834587812423706,0.7146130204200745,-0.6945234537124634,-0.1177436038851738,0.12819093465805054,0.09666883945465088,0.3247877419524412,-0.09455021453429367,-0.37920776095618575,0.8612634114857233,-0.7960707723076714,-0.11959352842968012,2.37002488426915
1761602707760510720,1.6725106239318848,-0.2360275685787201,-0.4625345468521118,0.1900682896375656,-0.08513838052749634,0.7168819904327393,-0.6919766664505005,-0.12930865585803986,0.13814425468444824,0.09534275531768799,0.32293866003895877,-0.09349186863926874,-0.3811442395106077,0.8612194845200468,-0.7993197188776726,-0.12242122816199538,2.3723264173531686
1761602707770554880,1.6825547218322754,-0.21604347229003906,-0.5300717353820801,0.17164240777492523,-0.08778022974729538,0.7186608910560608,-0.6897979378700256,-0.12813164293766022,0.12345641851425171,0.09862661361694336,0.3211720877797306,-0.09185317320712848,-0.38296740959405345,0.8612476144005804,-0.8018746151512656,-0.1265746806073995,2.373996198766881
1761602707780599552,1.6925995349884033,-0.3194620609283447,-0.4829210042953491,0.20503009855747223,-0.09043756127357483,0.7207397222518921,-0.6872811317443848,-0.11244329810142517,0.08724367618560791,0.09145593643188477,0.3193272446630063,-0.09024383077329406,-0.38498764731108015,0.8612030790322749,-0.804868831106768,-0.13083573795784767,2.375682502002835
1761602707790644736,1.7026445865631104,-0.497947633266449,-0.3916446268558502,0.2231941819190979,-0.09234326332807541,0.7238953709602356,-0.6837018132209778,-0.1169767752289772,0.06272566318511963,0.08006411790847778,0.31741881466743777,-0.08925721808674976,-0.3875335504830655,0.8608693948077644,-0.8094319484429146,-0.13425124711752043,2.3775084092709102
1761602707800688640,1.712688684463501,-0.6458925604820251,-0.3528842329978943,0.2006315290927887,-0.09376544505357742,0.7281675934791565,-0.6789551377296448,-0.14002972841262817,0.056775033473968506,0.07058721780776978,0.3155801152271,-0.08882981054363867,-0.3906810538235362,0.8601667699974216,-0.8156446085790167,-0.13723448794770082,2.3789555405582474
1761602707810733824,1.722733736038208,-0.7082637548446655,-0.28813958168029785,0.17763327062129974,-0.09509965032339096,0.7331560850143433,-0.6733782291412354,-0.14348676800727844,0.04054081439971924,0.04862236976623535,0.31388888919237184,-0.08869682178526603,-0.394263561568844,0.8591641185768021,-0.822951332941358,-0.14029982291009666,2.3797328258513106
1761602707820777728,1.7327775955200195,-0.576341450214386,-0.1828525960445404,0.11349654197692871,-0.0960601270198822,0.7378789782524109,-0.668062150478363,-0.1187378466129303,0.0021112561225891113,0.03755378723144531,0.3125389094666515,-0.0888371329921839,-0.39758883699381686,0.8581086987968249,-0.8299224028738339,-0.14281036024865404,2.3800225728393225
1761602707830822656,1.7428226470947266,-0.26276007294654846,-0.1453092098236084,0.059295617043972015,-0.09697393327951431,0.740925133228302,-0.6645494699478149,-0.10076471418142319,-0.054737389087677,0.03610098361968994,0.31175629617781053,-0.08882017366900198,-0.39979524701064717,0.8573696345484055,-0.8344468053044904,-0.14490159052088505,2.3797628750547615
1761602707840866816,1.7528667449951172,0.05368158221244812,-0.20813722908496857,0.08359882235527039,-0.09810756146907806,0.7417958974838257,-0.6634106636047363,-0.08060337603092194,-0.06606048345565796,-0.011622846126556396,0.31110371414231536,-0.08817445677857862,-0.40064937339373236,0.8572746523769689,-0.8357443636673609,-0.14681948132054823,2.380068925225921
1761602707850911744,1.7629115581512451,0.2886962294578552,-0.3468458354473114,0.1460275948047638,-0.09940428286790848,0.7407756447792053,-0.66435706615448,-0.04871278256177902,-0.023780405521392822,-0.02669823169708252,0.31022763508503254,-0.08684031784471094,-0.40035011951821503,0.8578679755100467,-0.8342242548855346,-0.14852297000248854,2.381693797685733
1761602707860955648,1.7729556560516357,0.3890438675880432,-0.4036007523536682,0.12498887628316879,-0.10137542337179184,0.738714337348938,-0.6663513779640198,-0.02711883932352066,0.021997272968292236,-0.015472352504730225,0.30907853580277167,-0.08476789821083343,-0.39954813163057906,0.858863345956252,-0.8311609432878241,-0.15097738846492453,2.3839873725160308
1761602707871000832,1.7830007076263428,0.35077744722366333,-0.4155396819114685,0.12331321090459824,-0.10360833257436752,0.7363783717155457,-0.66858971118927,0.0016033276915550232,0.033946335315704346,0.02950584888458252,0.3079430194577946,-0.08250529565297081,-0.39862014085723785,0.8599220376689909,-0.8277016862841379,-0.15374260289593025,2.3862033921430474
1761602707881045760,1.7930457592010498,0.3605252504348755,-0.4298945367336273,0.10496776551008224,-0.10599955171346664,0.7343237996101379,-0.6704719662666321,0.012096956372261047,0.02730339765548706,0.06904679536819458,0.3067741287769625,-0.08022760003120305,-0.3979039406685847,0.860886529874584,-0.824669957516485,-0.1567991291975314,2.388257844257691
1761602707891089664,1.8030896186828613,0.532709538936615,-0.38772258162498474,0.07168596982955933,-0.10844159871339798,0.7314915657043457,-0.6731719970703125,0.018811464309692383,0.0012660026550292969,0.108856201171875,0.3058031582046514,-0.07782469504142803,-0.3966828960069973,0.8620153722406612,-0.8205069438174358,-0.15971833898472346,2.3901991477776408
1761602707901134848,1.8131346702575684,0.6712592244148254,-0.3897421360015869,0.05925895646214485,-0.11096448451280594,0.7275871634483337,-0.6769814491271973,0.001909896731376648,-0.00667041540145874,0.11272668838500977,0.3050347298996726,-0.07521463981880944,-0.3947809945620771,0.8633913599376072,-0.8147981689324554,-0.16246598175811616,2.3921357226406266
1761602707911178496,1.8231785297393799,0.754231333732605,-0.4159947633743286,0.06922104954719543,-0.11345501244068146,0.722846508026123,-0.6816309690475464,0.006475672125816345,0.010902822017669678,0.07692521810531616,0.3042726296807768,-0.07243163520403552,-0.3923495509147228,0.8650049441415925,-0.8079128786307331,-0.16493434478763988,2.394477368978289
1761602707921223680,1.833223581314087,0.7505394220352173,-0.4646717309951782,0.0712159276008606,-0.11623287945985794,0.7178189754486084,-0.6864588856697083,0.006506927311420441,0.014480829238891602,0.028362631797790527,0.3034061613810098,-0.06940655752982292,-0.3898118448428533,0.8667030385474181,-0.8006646164383999,-0.1677315332673648,2.397001110435233
1761602707931267840,1.8432676792144775,0.6788066029548645,-0.376638799905777,0.0611792728304863,-0.11894190311431885,0.7130020260810852,-0.6909999847412109,0.007430665194988251,0.003642261028289795,-0.0033359527587890625,0.30253924253768016,-0.06648852990624242,-0.3874006686693407,0.868314496098162,-0.7937704233971294,-0.17045969906554023,2.3994702631691633
1761602707941312768,1.8533127307891846,0.5594232678413391,-0.27288371324539185,-0.010550484992563725,-0.12125956267118454,0.7088277339935303,-0.6948807835578918,-0.011263012886047363,0.0012094974517822266,0.03658616542816162,0.30203085978755173,-0.06409866252741535,-0.38529333838184265,0.8696078107713673,-0.7878349398784231,-0.17276447703007974,2.4010685481831926
1761602707951356672,1.863356590270996,0.447389155626297,-0.20772255957126617,-0.04939854517579079,-0.12338990718126297,0.705328106880188,-0.698059618473053,-0.037651367485523224,-0.0028287172317504883,0.04679924249649048,0.301919883974047,-0.062149928278000074,-0.38354604987247287,0.8705597567918595,-0.7828858956679223,-0.1749540856287362,2.401566164263866
1761602707961401600,1.8734016418457031,0.37580305337905884,-0.10909947752952576,-0.04844771325588226,-0.1250644028186798,0.7025026679039001,-0.7006061673164368,-0.02717253565788269,-0.0038790106773376465,0.03190493583679199,0.3019415366396623,-0.06065378521434169,-0.3821230788615736,0.871283237006753,-0.7789079690011746,-0.17664822437101066,2.4017436106628107
1761602707971446784,1.8834466934204102,0.37201815843582153,-0.03166140988469124,-0.08842574805021286,-0.1262156218290329,0.6998229622840881,-0.7030770778656006,-0.024861633777618408,0.03108823299407959,0.04098302125930786,0.3022428199083858,-0.05958077180252082,-0.3806725429629834,0.8718875000824046,-0.775149655617961,-0.1776268961407787,2.4015412596055987
1761602707981490688,1.8934905529022217,0.35733562707901,0.0026312824338674545,-0.13956625759601593,-0.12732724845409393,0.6972217559814453,-0.7054569721221924,-0.03266112506389618,0.09037590026855469,0.05939984321594238,0.30285016897583455,-0.058681434347869044,-0.3792466218789476,0.8723590040760009,-0.7715145833979571,-0.17856658886952298,2.400625566148441
1761602707991535616,1.9035356044769287,0.39528435468673706,0.03311622142791748,-0.14372292160987854,-0.12840838730335236,0.6944542527198792,-0.7079862952232361,-0.016550123691558838,0.11070626974105835,0.043420255184173584,0.30363733473027454,-0.05783776029965562,-0.3777057709166836,0.8728101152478215,-0.7676611373143567,-0.17942086949095398,2.3993900783777016
1761602708001579776,1.9135797023773193,0.38273292779922485,0.07673104107379913,-0.11948806792497635,-0.12914058566093445,0.6915876269340515,-0.7106541395187378,-0.022318139672279358,0.07724171876907349,0.013144373893737793,0.30444316547841777,-0.05715444570157078,-0.37604029276367335,0.8732934464517749,-0.7636847577505498,-0.17975916510035825,2.3983660354012444
1761602708011624704,1.9236247539520264,0.30528873205184937,0.1472265124320984,-0.13935710489749908,-0.12942034006118774,0.6890429854393005,-0.7130709886550903,-0.03633590042591095,0.04520994424819946,0.030514836311340332,0.3053019492415589,-0.056794768260029174,-0.37448479486813624,0.873685514148178,-0.7601676966628376,-0.17954271183649842,2.3973471019936405
1761602708021668608,1.933668613433838,0.17812897264957428,0.25065377354621887,-0.20605865120887756,-0.12937913835048676,0.6871975660324097,-0.7148570418357849,-0.05494704842567444,0.03365814685821533,0.06908982992172241,0.30651671118434437,-0.05690839120117372,-0.3732732344275175,0.8737711907763165,-0.7576243456722924,-0.17904786239760287,2.3953944547349857
1761602708031713792,1.943713665008545,0.13242539763450623,0.3009622097015381,-0.26272326707839966,-0.12920759618282318,0.6859365105628967,-0.7160981893539429,-0.06305313110351562,0.04238075017929077,0.06250321865081787,0.3081402235204812,-0.057394524014995715,-0.37236647105043696,0.873555249781763,-0.7558899111379812,-0.17851212892098262,2.3923266424710627
1761602708041757696,1.9537577629089355,0.16175208985805511,0.3297930955886841,-0.3034442067146301,-0.1290709674358368,0.6846306324005127,-0.7173712849617004,-0.03871467709541321,0.041901350021362305,0.014871954917907715,0.31003052743625475,-0.05796363778472188,-0.3714223538325124,0.8732506707694766,-0.7540968264306325,-0.17801750080239753,2.388643020890077
1761602708051802624,1.9638025760650635,0.20709587633609772,0.353185772895813,-0.3521427810192108,-0.1290438026189804,0.6829783320426941,-0.7189493775367737,-0.0025174468755722046,0.05418902635574341,0.002625584602355957,0.3121768686707421,-0.05850250519367405,-0.3702738926492169,0.8729376701773806,-0.7518323377415307,-0.17759833283414098,2.384453390464811
1761602708061847808,1.9738476276397705,0.24444641172885895,0.35007816553115845,-0.3819378912448883,-0.12920303642749786,0.6809552907943726,-0.7208373546600342,0.01140516996383667,0.07684195041656494,0.00639033317565918,0.3145314696978734,-0.05894513748159908,-0.36892653374986994,0.87263323758157,-0.7490663375491284,-0.17735689064861748,2.3798319701097923
1761602708071891712,1.9838917255401611,0.22942590713500977,0.3386707901954651,-0.38413047790527344,-0.12951961159706116,0.6788477897644043,-0.7227657437324524,0.015551745891571045,0.0712437629699707,0.014651119709014893,0.3169263476612685,-0.05930134524360626,-0.3675601672301329,0.8723190307088677,-0.7461923020031721,-0.17731793237846613,2.3750569584485124
1761602708081936640,1.993936538696289,0.1718803197145462,0.398266464471817,-0.41799771785736084,-0.12975721061229706,0.676964521408081,-0.7244874835014343,0.011562630534172058,0.039435625076293945,0.045715510845184326,0.31942019365038865,-0.05978614972443922,-0.3663084474976798,0.871902762958852,-0.743630540586235,-0.1772230598095358,2.370001730829983
1761602708091980800,2.0039806365966797,0.13530446588993073,0.4873417317867279,-0.45959705114364624,-0.1296774297952652,0.6754171848297119,-0.7259445190429688,-0.010703429579734802,0.011533498764038086,0.06479644775390625,0.3222232701803783,-0.06063265814083553,-0.3651731379358888,0.8712889832234153,-0.7415302603819524,-0.1767682355200339,2.364273351604996
1761602708102025728,2.0140256881713867,0.1063566505908966,0.5138162970542908,-0.4535582661628723,-0.1292879730463028,0.6740391254425049,-0.7272935509681702,-0.013534307479858398,0.018725156784057617,0.05326712131500244,0.3251998324368457,-0.06174004731940731,-0.36406233682703104,0.8705699008736101,-0.7396631646320851,-0.1759280760115665,2.358246473555037
1761602708112069632,2.0240695476531982,0.13656887412071228,0.5047903060913086,-0.4614713191986084,-0.12881845235824585,0.672702431678772,-0.7286132574081421,0.009632036089897156,0.04999959468841553,0.04857480525970459,0.32816806320143743,-0.06288780140246886,-0.3629579761241964,0.8698347015319946,-0.7378551014370462,-0.17499114246343447,2.352258956751639
1761602708122114560,2.0341145992279053,0.19117581844329834,0.4948560297489166,-0.4856174886226654,-0.1284937709569931,0.6709777116775513,-0.7302590012550354,0.029098033905029297,0.059185802936553955,0.048648953437805176,0.33121490417404353,-0.06389629334669213,-0.3616458969960762,0.8691525167408541,-0.7355265753558821,-0.17417353071582506,2.34616272753949
1761602708132159744,2.0441596508026123,0.18317009508609772,0.4726777672767639,-0.48056814074516296,-0.12835237383842468,0.6690848469734192,-0.7320185303688049,0.05341646075248718,0.05634850263595581,0.05834305286407471,0.33427775031409185,-0.06477295325967067,-0.360271004991422,0.8684858265688976,-0.7329766992166918,-0.17357587362197582,2.3399876668870623
1761602708142203904,2.054203748703003,0.20214229822158813,0.47634828090667725,-0.4702025055885315,-0.1281779706478119,0.6671809554100037,-0.7337846755981445,0.07281909883022308,0.06067854166030884,0.07939624786376953,0.3372769927057918,-0.06562957186788365,-0.3588877576529904,0.8678343441327836,-0.7304178297596838,-0.1729357767252752,2.333973637621115
1761602708152248576,2.064248561859131,0.22438421845436096,0.4645683169364929,-0.45171165466308594,-0.12791414558887482,0.6650912165641785,-0.7357252240180969,0.07151767611503601,0.04764682054519653,0.0937422513961792,0.3402258330652489,-0.06645560719578339,-0.35738079160732417,0.8672421574575341,-0.7276159468168736,-0.17214058887141334,2.3281950239415288
1761602708162292736,2.0742926597595215,0.1973543018102646,0.4265121817588806,-0.4238678514957428,-0.12766316533088684,0.6630691289901733,-0.7375916838645935,0.06647543609142303,0.049272119998931885,0.089962899684906,0.343007204118878,-0.06721590416529269,-0.35593003321339856,0.8666844822022007,-0.7249114384469724,-0.1713831710004444,2.322758191496289
1761602708172337664,2.0843377113342285,0.16106073558330536,0.4132919907569885,-0.4005239009857178,-0.12738612294197083,0.661324679851532,-0.7392038702964783,0.06612209975719452,0.05797463655471802,0.09087324142456055,0.34560222870647,-0.06797583037687539,-0.3546510080721555,0.8661183689625607,-0.722583423858991,-0.17065267902339476,2.3176423762320533
1761602708182381568,2.09438157081604,0.14093226194381714,0.411008358001709,-0.3847394585609436,-0.1270267367362976,0.659824788570404,-0.7406046986579895,0.059735506772994995,0.05698734521865845,0.10498464107513428,0.34809480828688955,-0.06879039385084444,-0.3535046257686649,0.8655242499617748,-0.7205855916838535,-0.16986475596270662,2.3127006944934694
1761602708192426752,2.104426622390747,0.12413357198238373,0.3754817843437195,-0.3468509316444397,-0.12659595906734467,0.6584846377372742,-0.7418702244758606,0.053262218832969666,0.06330180168151855,0.10745561122894287,0.35043326580307893,-0.06961267426760225,-0.3524471011173064,0.8649460650769473,-0.7188034939522376,-0.1690163368475058,2.30808277755355
1761602708202470656,2.1144707202911377,0.13542258739471436,0.32002827525138855,-0.3182985484600067,-0.1262635737657547,0.6572307348251343,-0.7430378794670105,0.050518929958343506,0.08140146732330322,0.10876059532165527,0.3525216222921571,-0.07030335217144386,-0.3514804209926447,0.8644348049881659,-0.7171385512700194,-0.1683209926877005,2.303947836112376
1761602708212515584,2.1245155334472656,0.16035430133342743,0.27010250091552734,-0.3178876042366028,-0.12622873485088348,0.655828058719635,-0.744282066822052,0.04752388596534729,0.08245319128036499,0.11960256099700928,0.3544734478374796,-0.07075259128550701,-0.35050395653919375,0.8639963107647245,-0.715279024476653,-0.16799939858557614,2.3000221831302587
1761602708222560768,2.1345605850219727,0.14377795159816742,0.23926205933094025,-0.3070046007633209,-0.1264764368534088,0.6543996334075928,-0.745496392250061,0.04961790144443512,0.06807351112365723,0.14036333560943604,0.3563250425365239,-0.07101458050057151,-0.349583667870575,0.8635859730986174,-0.7133883911076403,-0.168053852672254,2.296182261722796
1761602708232604672,2.1446046829223633,0.14589756727218628,0.2164510190486908,-0.3200114965438843,-0.126877099275589,0.6530649662017822,-0.7465978860855103,0.04628017544746399,0.06786704063415527,0.15416020154953003,0.3581213633990062,-0.07120187576040435,-0.3487568571499222,0.8631616833403024,-0.7116245900342234,-0.16833217279668045,2.2923469757996036
1761602708242649856,2.1546497344970703,0.1771031618118286,0.1920442134141922,-0.3448907136917114,-0.127566859126091,0.651546061038971,-0.7478064298629761,0.03897431492805481,0.06650203466415405,0.14485538005828857,0.35997350206853956,-0.07122191831961935,-0.34788535472678717,0.8627411620990058,-0.7096206468393274,-0.16896165500366442,2.2882996426259443
1761602708252693760,2.164693593978882,0.1949484646320343,0.1887189894914627,-0.3790910542011261,-0.12854541838169098,0.6497909426689148,-0.7491647601127625,0.04707874357700348,0.0772293210029602,0.13464760780334473,0.3619305079400599,-0.07108099974610346,-0.3469367336443511,0.862315955472234,-0.7073093486995974,-0.16993020132924944,2.283949552177577
1761602708262738688,2.174738645553589,0.1880805492401123,0.17808862030506134,-0.4168533384799957,-0.12978056073188782,0.6479447484016418,-0.7505494952201843,0.05754546821117401,0.10411518812179565,0.10934466123580933,0.364034135450911,-0.07084919545243534,-0.3459850339387321,0.8618316710479965,-0.7048830716738751,-0.1712210007853814,2.279158800022065
1761602708272782848,2.1847827434539795,0.1849800944328308,0.16704237461090088,-0.44654279947280884,-0.13134199380874634,0.6461077332496643,-0.7518603801727295,0.06283007562160492,0.11904418468475342,0.06228524446487427,0.36625963893352587,-0.07050929139377846,-0.3451061485235196,0.8612688083273508,-0.7024737437646796,-0.17294423184424482,2.2739086193128486
1761602708282827520,2.1948275566101074,0.15418103337287903,0.2205083817243576,-0.485809326171875,-0.13295069336891174,0.644306480884552,-0.7531223297119141,0.05299463868141174,0.103496253490448,0.04105567932128906,0.36864826073230095,-0.07021929290581436,-0.34425003980913105,0.8606157560115756,-0.7001160684351072,-0.1747324088199078,2.268241388570352
1761602708292872704,2.2048726081848145,0.09920725971460342,0.266002893447876,-0.5435793995857239,-0.134487584233284,0.6428001523017883,-0.7541359663009644,0.022900044918060303,0.08968275785446167,0.044892191886901855,0.3713144186587235,-0.0701504415544236,-0.3435271854786512,0.8597637129497223,-0.6981480813370913,-0.17647811368605837,2.2618467485876903
1761602708302917376,2.2149174213409424,-0.007049941457808018,0.3356512188911438,-0.5576909780502319,-0.13577304780483246,0.6418132781982422,-0.7547459006309509,-0.009353294968605042,0.06987184286117554,0.023331165313720703,0.3742116200159114,-0.07043059865137904,-0.3430256094105743,0.8586842644797084,-0.6968604853741358,-0.1779886986407972,2.254830164515454
1761602708312962560,2.2249624729156494,-0.029395725578069687,0.3514464497566223,-0.5810977816581726,-0.13685713708400726,0.6413671374320984,-0.7549293637275696,-0.020903483033180237,0.02899724245071411,-0.01060408353805542,0.37724245295546144,-0.07100464913539277,-0.34277348042298783,0.8574105837329077,-0.6962788693147408,-0.1793370395583839,2.247377482310118
1761602708323006720,2.23500657081604,-0.05257980898022652,0.3668530285358429,-0.5664249062538147,-0.13787353038787842,0.6409736275672913,-0.7550786137580872,-0.028691411018371582,-0.01826244592666626,-0.025210082530975342,0.3803144989418525,-0.0716427225816946,-0.3425317752393582,0.8560958656015536,-0.695766032294329,-0.1806052871149754,2.2398324319029457
1761602708333051648,2.245051622390747,-0.06613849848508835,0.3655502200126648,-0.5683642029762268,-0.13873957097530365,0.6408218741416931,-0.7550487518310547,-0.042168647050857544,0.005448877811431885,0.010709762573242188,0.3833448181534102,-0.07240268282696453,-0.3423937255829271,0.8547345815580351,-0.6955684056120925,-0.18172203524359712,2.2323525172998773
1761602708343095552,2.2550954818725586,0.004031505435705185,0.3089607357978821,-0.5919491648674011,-0.13990327715873718,0.6404315233230591,-0.7551652193069458,-0.05511932075023651,0.03736388683319092,0.0360795259475708,0.3863920547583335,-0.0729645512575623,-0.3421893629568513,0.8533954494682022,-0.695060018979994,-0.18318489157469434,2.224765070730695
1761602708353140480,2.2651405334472656,0.17106764018535614,0.25020286440849304,-0.6389819383621216,-0.14174333214759827,0.6390364170074463,-0.7560034990310669,-0.05404220521450043,0.014009237289428711,0.038336873054504395,0.3895421376717586,-0.07297070096730167,-0.34157508319268415,0.8522080991237914,-0.6932448837986716,-0.18533859528229243,2.21699928732126
1761602708363185664,2.2751855850219727,0.23691485822200775,0.1771824061870575,-0.6307764053344727,-0.1442689448595047,0.6366036534309387,-0.757576584815979,-0.0628843754529953,-0.02217799425125122,0.005669236183166504,0.3926950551027445,-0.07236452515425876,-0.34055114999197766,0.8512220526535534,-0.6900862246135703,-0.18818156561006186,2.2093086781465043
1761602708373229568,2.285229444503784,0.22240275144577026,0.17768068611621857,-0.6524390578269958,-0.14702843129634857,0.6340774297714233,-0.7591630816459656,-0.06523661315441132,-0.02818143367767334,5.352497100830078e-05,0.39578461226518613,-0.07159437239519004,-0.33954781148533547,0.8502565578751035,-0.6868148311854888,-0.19130335309949978,2.2016865615900274
1761602708383274496,2.295274496078491,0.16528676450252533,0.1868978589773178,-0.7181965112686157,-0.1500314176082611,0.631615161895752,-0.7606266140937805,-0.07735507190227509,-0.024727344512939453,0.025473415851593018,0.39910357988773015,-0.07081740809358336,-0.338631939599075,0.8491346313666114,-0.6836347886427188,-0.1947471682612311,2.1933713966267483
1761602708393318656,2.305318593978882,0.0719754695892334,0.17423106729984283,-0.7500505447387695,-0.15339456498622894,0.6297715306282043,-0.7614840865135193,-0.08383384346961975,-0.024607956409454346,-0.017828047275543213,0.4025765823249749,-0.0701065231133397,-0.33814645847127184,0.8477465913949747,-0.6812590187968625,-0.19878130901489,2.18423390721558
1761602708403363584,2.3153634071350098,0.10286204516887665,0.1860637366771698,-0.7331357598304749,-0.15679007768630981,0.6280680894851685,-0.7621990442276001,-0.05990001559257507,-0.06320297718048096,-0.0437549352645874,0.4060650289210574,-0.06942814608462455,-0.337757608752362,0.8462924230172042,-0.679068053003954,-0.20287748777934547,2.1749765091360875
1761602708413407488,2.3254075050354004,0.0395166277885437,0.15889309346675873,-0.7125873565673828,-0.1600973755121231,0.6264389753341675,-0.7628519535064697,-0.0571877658367157,-0.07477271556854248,-0.026164770126342773,0.40943169429259924,-0.0687657119238197,-0.3374096973413125,0.8448619415258406,-0.6769762247361107,-0.20686472423118943,2.1660144198239295
1761602708423452672,2.3354525566101074,0.0033269664272665977,0.10300955176353455,-0.7199050784111023,-0.1636059582233429,0.6252491474151611,-0.7630836367607117,-0.058531492948532104,-0.016484498977661133,0.00952833890914917,0.41268639867441104,-0.0680940195527609,-0.3373742619347408,0.8433456094358264,-0.6754507494714987,-0.2112036320228089,2.1570061286808606
1761602708433497600,2.3454976081848145,0.026425359770655632,0.10048753768205643,-0.7355767488479614,-0.16750629246234894,0.6240358948707581,-0.763230562210083,-0.04964153468608856,0.015292108058929443,0.019944429397583008,0.4159211096982988,-0.06723064038767544,-0.33743853226184944,0.8417986813786275,-0.6738971166027273,-0.2160448148444958,2.1478407123987204
1761602708443541504,2.355541467666626,0.018629388883709908,-0.025330744683742523,-0.8268821835517883,-0.17199356853961945,0.6225797533988953,-0.7634216547012329,-0.041125908493995667,-0.01604294776916504,-0.00032645463943481445,0.4192767699011686,-0.0660795406716546,-0.3375243093890794,0.8401891839655529,-0.6720350047053839,-0.22159332572887494,2.1381821141856814
1761602708453586688,2.365586519241333,-0.12353867292404175,-0.08192957192659378,-0.8630449771881104,-0.17791804671287537,0.6215238571166992,-0.7629241943359375,-0.06848089396953583,-0.05975627899169922,-0.0706634521484375,0.4227669900248222,-0.06444566222324825,-0.3382080172787603,0.8382900793121734,-0.6706863905989192,-0.22911061712617464,2.1272418955881376
1761602708463630592,2.3756306171417236,-0.31774166226387024,0.033371951431035995,-0.7673531770706177,-0.1833634227514267,0.6217814683914185,-0.7614234685897827,-0.0883956104516983,-0.12582504749298096,-0.08185350894927979,0.4260919765336484,-0.06336670468284292,-0.3395186756328088,0.8361562953878766,-0.6710152540128146,-0.23631698845489246,2.116281826324032
1761602708473675520,2.3856754302978516,-0.5488201379776001,0.29519423842430115,-0.669219434261322,-0.18672534823417664,0.6238726377487183,-0.7588916420936584,-0.10122323036193848,-0.19076722860336304,-0.05980342626571655,0.42920508748980857,-0.06372026915114985,-0.34131205781300544,0.833803720414503,-0.6736882085346767,-0.2412576579606306,2.1059806829683585
1761602708483719680,2.395719528198242,-0.5262306332588196,0.30392882227897644,-0.7045131921768188,-0.1886979639530182,0.6269280314445496,-0.755879819393158,-0.1606520116329193,-0.05306023359298706,-0.04683929681777954,0.4324071179641313,-0.06505820321060914,-0.343260124820813,0.8312424602998586,-0.6776038523675861,-0.24463995918072745,2.095662184962003
1761602708493764608,2.405764579772949,-0.19278904795646667,-0.07674340158700943,-0.7759026885032654,-0.1925557553768158,0.6283190846443176,-0.753748893737793,-0.1894785612821579,0.10277527570724487,-0.08200550079345703,0.43561997238015254,-0.06505769340195851,-0.34480869888355187,0.8289208418417506,-0.6793906522336949,-0.2501146565385614,2.085078898885574
1761602708503809792,2.4158096313476562,-0.0374511256814003,-0.18734288215637207,-0.6617885231971741,-0.1984662413597107,0.627665638923645,-0.7527596354484558,-0.0852556973695755,0.03770911693572998,-0.08268958330154419,0.43835055934357187,-0.0633116174387368,-0.34584943809707597,0.8271811370935388,-0.678550958040037,-0.25778534134512765,2.0755586559212214
1761602708513853440,2.4258534908294678,-0.14003103971481323,-0.015140756964683533,-0.5382908582687378,-0.20314736664295197,0.6271581053733826,-0.7519333958625793,0.010886654257774353,-0.09218502044677734,-0.006626784801483154,0.44058705958269495,-0.06197180484963856,-0.34668834729878245,0.8257418702427736,-0.6778992079900997,-0.26386721814873315,2.0678137987091025
1761602708523898624,2.435898542404175,-0.1784607172012329,0.1239609345793724,-0.6068626642227173,-0.20623517036437988,0.6273308992385864,-0.7509481310844421,-0.03026081621646881,-0.09231191873550415,0.02044886350631714,0.4429958506865231,-0.061644054241886743,-0.3474563921550261,0.8241534224875129,-0.6781210183600814,-0.26802501297148,2.0601507875590417
1761602708533942784,2.4459426403045654,-0.1326490193605423,-0.004468138795346022,-0.6757853031158447,-0.2099602371454239,0.6271865367889404,-0.75003582239151,-0.10934518277645111,-0.01508021354675293,-0.04778522253036499,0.4457759941669866,-0.06109504485064941,-0.3482089552073051,0.8223756390389971,-0.6779356881654472,-0.27294713056567266,2.051379839531123
1761602708543987456,2.4559874534606934,-0.19697344303131104,0.045151110738515854,-0.5076689720153809,-0.2138911336660385,0.6271274089813232,-0.7489738464355469,-0.10105030238628387,-0.012396574020385742,-0.12457656860351562,0.44820290847874233,-0.06033995900271903,-0.3491019364911641,0.8207320502356571,-0.6778597516288388,-0.2781744872685503,2.043279412497003
1761602708554031616,2.466031551361084,-0.2716980278491974,0.3075670003890991,-0.3807302415370941,-0.21539916098117828,0.6280725598335266,-0.7477487325668335,-0.07280884683132172,-0.062230825424194336,-0.158394455909729,0.45022405144575284,-0.06082527559288794,-0.3498941672913589,0.819251335845445,-0.6790737554921445,-0.2804702862305407,2.03695046163404
1761602708564076544,2.476076602935791,-0.11621254682540894,0.35968852043151855,-0.4089130163192749,-0.21534261107444763,0.6288123726844788,-0.7471429109573364,-0.12527932226657867,-0.03336864709854126,-0.19511783123016357,0.45239388138404957,-0.06201475452599622,-0.35011815050714584,0.81786990486137,-0.6800249032319055,-0.2806160710642353,2.0312543348541756
1761602708574121472,2.486121416091919,0.14081604778766632,0.1864083707332611,-0.37560248374938965,-0.2159135937690735,0.6278656125068665,-0.7477741241455078,-0.14382760226726532,0.036502063274383545,-0.2285747528076172,0.4545608024531433,-0.06238319592970153,-0.34960161069124013,0.8168608330081598,-0.6788079052071916,-0.2810963865916112,2.0261731421968645
1761602708584165632,2.4961655139923096,0.23929138481616974,-0.023610008880496025,-0.24158868193626404,-0.2175312340259552,0.6256740093231201,-0.7491410374641418,-0.1002635657787323,0.05520367622375488,-0.21660304069519043,0.45603451512690246,-0.061586734592924595,-0.3487643385770324,0.8164576571440295,-0.6759952206846266,-0.28260256527456723,2.0229073374023883
1761602708594210560,2.5062105655670166,0.1686244010925293,-0.024152228608727455,-0.19496791064739227,-0.21934370696544647,0.6236737966537476,-0.7502796053886414,-0.035905346274375916,-0.02023446559906006,-0.11828124523162842,0.45690804004213836,-0.06050881194020502,-0.34813631688443736,0.8163179408537617,-0.6734337493900471,-0.28442310580355173,2.020890896138304
1761602708604254464,2.516254425048828,0.029733840376138687,0.08228319883346558,-0.23948557674884796,-0.22076651453971863,0.62245112657547,-0.750877320766449,-0.04348514974117279,-0.14884889125823975,0.004676759243011475,0.45791502248863686,-0.05991183407092619,-0.3478101855901653,0.8159364878807192,-0.6718705792001621,-0.2859536884718037,2.018320444463064
1761602708614299648,2.526299476623535,-0.0886354148387909,0.18376775085926056,-0.2335970550775528,-0.22148573398590088,0.6221801042556763,-0.7508901357650757,-0.09942185878753662,-0.24852287769317627,0.06320703029632568,0.459151307475025,-0.06003207925575733,-0.34778021749616816,0.8152454302581524,-0.6715243471921534,-0.2868304364580789,2.0150373681335316
1761602708624343552,2.536343574523926,-0.15512490272521973,0.2206316888332367,-0.20353654026985168,-0.2215002477169037,0.6226574778556824,-0.750490128993988,-0.12228028476238251,-0.2745739817619324,0.09501832723617554,0.4603874089554729,-0.0607076916863326,-0.3479504555032511,0.8144253548791603,-0.6721342721224755,-0.28699287016306435,2.0117185264382647
1761602708634388736,2.546388626098633,-0.09631723165512085,0.2618393003940582,-0.20835818350315094,-0.22107209265232086,0.6231778264045715,-0.7501843571662903,-0.11413301527500153,-0.23816806077957153,0.07850772142410278,0.4616105234933352,-0.06158928532758007,-0.348015195293817,0.813638774615068,-0.6727994732074113,-0.2865784628880325,2.0086544622327596
1761602708644433408,2.5564334392547607,-0.04065024480223656,0.16215001046657562,-0.1994864046573639,-0.22096186876296997,0.6232889890670776,-0.7501245141029358,-0.08821173012256622,-0.18198955059051514,-0.003446042537689209,0.4628268120926623,-0.062194718325194055,-0.3479505203884879,0.812929084131294,-0.6729415684411362,-0.28646489966286043,2.0056613680476634
1761602708654477568,2.5664775371551514,0.1485135406255722,0.01644313521683216,-0.1500818282365799,-0.22145017981529236,0.6224504113197327,-0.7506766319274902,-0.03311222791671753,-0.15286117792129517,-0.10085535049438477,0.46375078387910884,-0.06210032425775647,-0.3475704928357906,0.8125722430842078,-0.6718697076114447,-0.28686405924325475,2.003598652538225
1761602708664522752,2.5765225887298584,0.3113270401954651,-0.11708462983369827,-0.11134722828865051,-0.22277651727199554,0.6203821897506714,-0.7519950866699219,0.0024243146181106567,-0.1517390012741089,-0.15871047973632812,0.4642745797676061,-0.06106290721812484,-0.3468050857577223,0.8126787865432237,-0.6692299023016112,-0.28801039461485534,2.0027599675096344
1761602708674566400,2.58656644821167,0.3815971910953522,-0.2352200597524643,-0.12064751982688904,-0.22497954964637756,0.6173996925354004,-0.7537916302680969,-0.013957828283309937,-0.11036539077758789,-0.1314011812210083,0.46455011423321463,-0.05923628187645867,-0.3458254438249996,0.8130738748334349,-0.6654328734366401,-0.2900468803834112,2.002565900592614
1761602708684611584,2.596611499786377,0.3258649706840515,-0.25000298023223877,-0.1321513056755066,-0.22780683636665344,0.6143363118171692,-0.7554435729980469,-0.04379962384700775,-0.09460669755935669,-0.09585952758789062,0.46477365547308436,-0.057089241929521944,-0.34499134668860787,0.813453970085856,-0.6615445625273104,-0.2928816352186118,2.002195900871546
1761602708694655744,2.6066555976867676,0.1814127117395401,-0.14636848866939545,-0.13679534196853638,-0.23030802607536316,0.6120445728302002,-0.7565445303916931,-0.06734517216682434,-0.1397850513458252,-0.09370571374893188,0.4650640361317813,-0.055367375707598046,-0.3444737753701429,0.8136263059991342,-0.6586434208733556,-0.295507776596101,2.0014022094116912
1761602708704700416,2.6167004108428955,0.1098846048116684,-0.03349772468209267,-0.18668077886104584,-0.23209410905838013,0.6106012463569641,-0.757164716720581,-0.09328427910804749,-0.1904352903366089,-0.10756605863571167,0.46561434587953654,-0.054346461796934316,-0.3441861488897826,0.8135020307291434,-0.6568195779844029,-0.2974372880951387,1.9998828879026207
1761602708714745600,2.6267454624176025,0.14613714814186096,0.025467855855822563,-0.2616138458251953,-0.23357293009757996,0.6090362071990967,-0.7579699754714966,-0.10651494562625885,-0.19956666231155396,-0.08938103914260864,0.4666053476560899,-0.05360862154178154,-0.3437166188338895,0.8131816375105934,-0.6548448881488342,-0.29892237786276,1.9975234124183008
1761602708724789504,2.636789560317993,0.18344101309776306,0.02756253257393837,-0.26739051938056946,-0.23515421152114868,0.6070880889892578,-0.7590432167053223,-0.08553977310657501,-0.1703662872314453,-0.059270381927490234,0.46781880350440985,-0.052796016959271004,-0.3430611768591901,0.8128144079491255,-0.6523909538018974,-0.30042634739923063,1.994781236957381
1761602708734834688,2.6468346118927,0.2197263091802597,-0.023786410689353943,-0.23692023754119873,-0.23674026131629944,0.6048694849014282,-0.7603203058242798,-0.03866562247276306,-0.13839304447174072,-0.038263678550720215,0.4689269747612321,-0.051849615097823355,-0.3422739688017195,0.8125685731851954,-0.6496019884160292,-0.3018542650066282,1.9924506292979662
1761602708744878592,2.6568784713745117,0.2362174689769745,-0.03717125579714775,-0.25589749217033386,-0.238629549741745,0.6024667024612427,-0.7616363167762756,-0.013781353831291199,-0.13885891437530518,-0.043844640254974365,0.4699439271896394,-0.05067235366976231,-0.3414881465797536,0.8123859642918674,-0.6465880424702793,-0.3036241515301412,1.990282718326085
1761602708754923520,2.6669235229492188,0.24201756715774536,-0.020122764632105827,-0.29112738370895386,-0.24065105617046356,0.5998571515083313,-0.763058602809906,-0.010920599102973938,-0.1551550030708313,-0.04370403289794922,0.4711015701113379,-0.04943009660447578,-0.3406278800103939,0.8121530603743943,-0.6433225490496963,-0.3055036485847432,1.9878141039688002
1761602708764967680,2.6769676208496094,0.16036398708820343,0.012918008491396904,-0.2637883424758911,-0.24246516823768616,0.5975381731987,-0.7643027305603027,-0.03382571041584015,-0.15228676795959473,-0.03724139928817749,0.4723011784888487,-0.048390386582652205,-0.3398632070152033,0.8118391720226471,-0.6404273998199149,-0.3071946532309223,1.9851900016741484
1761602708775012608,2.6870124340057373,0.14182066917419434,0.04400455206632614,-0.2770860493183136,-0.24390988051891327,0.5957345366477966,-0.7652505040168762,-0.04889102280139923,-0.09632962942123413,-0.01784580945968628,0.4735026924166354,-0.04767925330095088,-0.33926601472998014,0.811431124692369,-0.6381798488649966,-0.30855236765261773,1.9824693879210236
1761602708785057536,2.6970574855804443,0.19818226993083954,0.027065452188253403,-0.2799956202507019,-0.24541465938091278,0.593637228012085,-0.7663983702659607,-0.05890662968158722,-0.07807326316833496,-0.03339105844497681,0.47477658861825883,-0.04687724375638682,-0.33853114930403033,0.8110402925907623,-0.6355711577477571,-0.3099008104472222,1.9797040794114849
1761602708795101696,2.707101583480835,0.16284479200839996,0.009037982672452927,-0.2248879075050354,-0.24690501391887665,0.5915036797523499,-0.7675684094429016,-0.030392959713935852,-0.08366066217422485,-0.05097407102584839,0.4758976710399808,-0.04600586863419516,-0.3377858078261835,0.8107437893115275,-0.6329224554368722,-0.31121859908226673,1.9773431171067168
1761602708805146624,2.717146635055542,0.08497262746095657,0.007895752787590027,-0.1812254637479782,-0.24813032150268555,0.5899761319160461,-0.7683485746383667,0.01169539988040924,-0.05179864168167114,-0.0251542329788208,0.4767771855032079,-0.045344881886763444,-0.3372974413056699,0.8104676686495768,-0.6310293045779167,-0.31236739072912373,1.9753773888229516
1761602708815190528,2.7271904945373535,0.07996295392513275,-0.009852884337306023,-0.17873914539813995,-0.24932703375816345,0.5888486504554749,-0.7688259482383728,0.01757653057575226,-0.016094744205474854,0.0005001425743103027,0.477539798962781,-0.0447768079800598,-0.33701936714286485,0.810165933775169,-0.6296335742669122,-0.3135948432461201,1.9734881378568065
1761602708825235712,2.7372355461120605,0.12538602948188782,-0.013901887461543083,-0.15914243459701538,-0.25052714347839355,0.5875496864318848,-0.7694293260574341,-0.012168139219284058,-0.012842714786529541,-0.010081112384796143,0.4782501473166761,-0.04413035491353997,-0.33665686240050424,0.8099329739049898,-0.6280273842907969,-0.31477558337983,1.9718231849388796
1761602708835279360,2.747279405593872,0.12851551175117493,0.005505632609128952,-0.11714732646942139,-0.2514673173427582,0.5861092209815979,-0.7702208757400513,-0.04267635941505432,-0.0010109543800354004,-0.00922858715057373,0.4788540206867969,-0.043507181943480175,-0.33614978759850345,0.8098205919854626,-0.6262483936860684,-0.31557651296722866,1.970642544773207
1761602708845324544,2.757324457168579,0.10102636367082596,-0.00694917282089591,-0.08995422720909119,-0.2521553933620453,0.5848563313484192,-0.7709479331970215,-0.05059424042701721,0.03971642255783081,-0.009874820709228516,0.4793309036952821,-0.04300163735003012,-0.33567379163896643,0.8097628059250779,-0.6247029248915974,-0.3161047032835529,1.9698038087582816
1761602708855369472,2.767369508743286,0.03754938393831253,-0.04621561989188194,-0.052029483020305634,-0.2528861463069916,0.5840387344360352,-0.771328330039978,-0.04127281904220581,0.06429195404052734,-0.023868203163146973,0.47960768849814106,-0.0425349709516197,-0.33544986515433467,0.8097164414461022,-0.6236953353807622,-0.31681465764948324,1.9691903886332809
1761602708865413632,2.7774136066436768,-0.030690355226397514,-0.026980437338352203,-0.03900689631700516,-0.254374623298645,0.5827166438102722,-0.7718386650085449,-0.02139747142791748,0.06099063158035278,-0.019466876983642578,0.48000092397937955,-0.0416247803730664,-0.33518360609424,0.809640989865966,-0.6220675345951477,-0.31835945716886527,1.9681679969289736
1761602708875458560,2.7874584197998047,-0.07286150753498077,-0.01517065055668354,-0.03542281314730644,-0.2551519572734833,0.5816361904144287,-0.7723968625068665,-0.02322942018508911,0.05280900001525879,-0.011309802532196045,0.48037383809735057,-0.04109337414584433,-0.3348326606400129,0.8095922090813479,-0.6207386711700157,-0.3190522424258988,1.9674410849550903
1761602708885502464,2.7975025177001953,-0.11096905171871185,-0.03549259901046753,-0.009261425584554672,-0.2551715075969696,0.5816213488578796,-0.7724014520645142,-0.028107881546020508,0.050840139389038086,-0.036817848682403564,0.48048673715879753,-0.04112683769301009,-0.33482509877377564,0.8095264636149944,-0.6207204351956243,-0.31907329332403783,1.9671594581438254
1761602708895547648,2.8075475692749023,-0.09099321067333221,-0.035820167511701584,0.01515443529933691,-0.25505807995796204,0.58241868019104,-0.7718379497528076,-0.009666651487350464,0.05632948875427246,-0.04334759712219238,0.48036379091621767,-0.04138208722658039,-0.3352141800165782,0.8094254746358038,-0.6217009748805622,-0.31915824970172874,1.9670732737114944
1761602708905591552,2.817591428756714,-0.053972940891981125,-0.05067361891269684,0.026438958942890167,-0.2554236054420471,0.5828477740287781,-0.7713930606842041,0.012824147939682007,0.054817020893096924,-0.0241391658782959,0.4802306328511755,-0.041306421077414376,-0.33555514906540385,0.8093670637845229,-0.6222289240041926,-0.3197571695556825,1.9669627028833896
1761602708915636480,2.827636480331421,-0.019258104264736176,-0.03166770190000534,0.05532173812389374,-0.256327748298645,0.5830481052398682,-0.7709416151046753,0.02282249927520752,0.052434682846069336,-0.014962315559387207,0.48009495190637874,-0.040921924024157015,-0.3359383723249729,0.809308084696721,-0.622475457385588,-0.3209882892835522,1.9666976387068564
1761602708925681664,2.837681531906128,-0.02230076491832733,-0.0034922570921480656,0.09416980296373367,-0.25717103481292725,0.5839245319366455,-0.7699968814849854,0.023314833641052246,0.04153323173522949,0.0039141178131103516,0.47977414982171035,-0.04070482474141442,-0.33666700528875526,0.8092065623520766,-0.6235546607451442,-0.32234116769961885,1.9665356860914285
1761602708935725568,2.8477256298065186,-0.04397277161478996,0.010167362168431282,0.12326962500810623,-0.25729164481163025,0.5854777693748474,-0.7687761783599854,0.02326759696006775,0.03787428140640259,0.01953911781311035,0.4792377874952747,-0.04093013784226848,-0.3375450202396409,0.8091472454795636,-0.6254692884301692,-0.32295929609472873,1.9669051559059427
1761602708945770496,2.8577704429626465,-0.11909841746091843,0.0183925349265337,0.1725146621465683,-0.25653839111328125,0.5877530574798584,-0.7672902941703796,0.03269195556640625,0.0263521671295166,0.03132838010787964,0.4784568107329812,-0.04166623512086927,-0.33855395532848087,0.8091503416202543,-0.6282787705350724,-0.3226592811998646,1.9679336449652485
1761602708955814656,2.867814540863037,-0.18112929165363312,0.04429097846150398,0.20143766701221466,-0.2558611333370209,0.5907522439956665,-0.7652103304862976,0.044999927282333374,-0.008309006690979004,0.024060428142547607,0.4775458391121517,-0.042548975898744526,-0.33997707136543975,0.8090458263768899,-0.6319908291657874,-0.32268061206259424,1.9688161051759787
1761602708965859584,2.877859592437744,-0.25020769238471985,0.08511963486671448,0.21418941020965576,-0.25487256050109863,0.5931232571601868,-0.7637046575546265,0.04645279049873352,-0.03993111848831177,0.023256659507751465,0.47680281010522724,-0.043434783462950204,-0.3409708162706269,0.8090188018633055,-0.6349326061431788,-0.3221091883470131,1.9698131131852303
1761602708975903488,2.8879034519195557,-0.3268502652645111,0.1273946613073349,0.2369394600391388,-0.2522074282169342,0.5962574481964111,-0.7621473073959351,0.043314605951309204,-0.04073071479797363,0.014298796653747559,0.47591062158254643,-0.045236628249926435,-0.3418771811262905,0.8090628442350372,-0.6388310613315995,-0.3195741874616327,1.9716561621195903
1761602708985948672,2.8979485034942627,-0.23904985189437866,0.1613219976425171,0.23008981347084045,-0.2484465390443802,0.5998663902282715,-0.7605489492416382,0.03955371677875519,-0.024274349212646484,-0.011164307594299316,0.4748971760433552,-0.0476219232786281,-0.3427210074322655,0.8091645231567123,-0.6433341128441032,-0.31573925942810765,1.9741319230705077
1761602708995993600,2.9079935550689697,-0.08814023435115814,0.14135681092739105,0.21957911550998688,-0.24453270435333252,0.6024388074874878,-0.7597836852073669,0.023936420679092407,-0.01766103506088257,-0.03732019662857056,0.47394978287111694,-0.04976781175788845,-0.3429742509961698,0.8094834262048252,-0.646553145058418,-0.311375829595494,1.977144201001846
1761602709006037504,2.9180374145507812,-0.054320354014635086,0.12266048789024353,0.23608361184597015,-0.2412600815296173,0.6042990684509277,-0.7593525052070618,0.023883402347564697,0.0028938651084899902,-0.030030429363250732,0.47301484576277597,-0.051409032889600526,-0.3430464546906649,0.8098970204033041,-0.6488858512759349,-0.3076317073054672,1.980190367101552
1761602709016082432,2.9280824661254883,-0.10307350754737854,0.09141628444194794,0.2081742137670517,-0.2385849803686142,0.6065593361854553,-0.7583950161933899,0.0380387008190155,0.020805776119232178,-0.0034000277519226074,0.4720407561054338,-0.05290414270544781,-0.3435165848513429,0.8101697644293308,-0.6517257233573719,-0.30478958495442393,1.982769517884585
1761602709026126592,2.938126564025879,-0.10682094097137451,0.056379035115242004,0.17576906085014343,-0.23615194857120514,0.6089367270469666,-0.7572504878044128,0.049109697341918945,0.0032153725624084473,0.008288085460662842,0.47110965634457685,-0.054350944168409805,-0.3441231240595353,0.8103585573973021,-0.6547194704925576,-0.3022966551645185,1.9850417537693112
1761602709036171776,2.948171615600586,-0.11673589050769806,0.06543298065662384,0.1595565378665924,-0.23360975086688995,0.6098025441169739,-0.7573423385620117,0.046811655163764954,-0.024643242359161377,0.02092266082763672,0.47046012416660127,-0.05547318002878376,-0.3438772549739897,0.8107641160909442,-0.6558113922433534,-0.2991999963192986,1.9875644576771283
1761602709046215424,2.9582154750823975,-0.14267927408218384,0.06771471351385117,0.16213083267211914,-0.2312580794095993,0.6096078157424927,-0.7582203149795532,0.027537986636161804,-0.014743924140930176,0.029689431190490723,0.4700640801120612,-0.056274678508175385,-0.34310786699940077,0.8112643858251506,-0.6555657289027127,-0.2960386883121214,1.9899681995883685
1761602709056260608,2.9682605266571045,-0.12606461346149445,0.03518792614340782,0.14522747695446014,-0.22914348542690277,0.6093000769615173,-0.7591090798377991,0.011934652924537659,0.01084756851196289,0.015594124794006348,0.46968418826603753,-0.056943340711307966,-0.34234910898234405,0.8117580927676505,-0.6551776176822904,-0.29316091997046706,1.9922582245843021
1761602709066305536,2.9783055782318115,-0.07574082165956497,0.010114897973835468,0.12820616364479065,-0.22709862887859344,0.60884028673172,-0.7600919008255005,0.016191646456718445,0.02189701795578003,0.008352398872375488,0.46927563228565017,-0.057521080073511165,-0.34153384459056624,0.8122969229381211,-0.6545978432774968,-0.29033517957965543,1.9946604116571043
1761602709076349440,2.988349437713623,-0.054102636873722076,0.002162699121981859,0.12487933039665222,-0.2257373183965683,0.6078025102615356,-0.7613269686698914,0.0222308486700058,0.026917338371276855,0.005406558513641357,0.4689826702178822,-0.05766059056267992,-0.34060500557898654,0.8128460667067473,-0.6532903428027499,-0.2882473775602695,1.996719708690884
1761602709086394624,2.99839448928833,-0.05044378712773323,0.004836579784750938,0.12219247221946716,-0.22431795299053192,0.6078647971153259,-0.7616966962814331,0.017729222774505615,0.030364573001861572,-0.00044929981231689453,0.46850174649134235,-0.05810424189949808,-0.34025806163946104,0.8132370053740762,-0.6533687472667516,-0.2864012328994658,1.9986481194146066
1761602709096438528,3.0084385871887207,-0.05324569717049599,0.008908553048968315,0.10849609971046448,-0.22238172590732574,0.6092404127120972,-0.761165201663971,0.0022889524698257446,0.020306706428527832,-0.007374227046966553,0.46778352919571603,-0.0591017672426398,-0.34047668102503487,0.8134870781558711,-0.6551023736894301,-0.28424832709468517,2.0007074420819353
1761602709106483712,3.0184836387634277,-0.06113947182893753,0.012095724232494831,0.09878035634756088,-0.2202187329530716,0.6104841828346252,-0.7607974410057068,-0.0043906569480896,0.008992135524749756,-0.008626937866210938,0.4671192152487306,-0.06017990335986491,-0.34055784535339156,0.8137557730969928,-0.6566717936340717,-0.28175718503371666,2.002834389935966
1761602709116528384,3.0285284519195557,-0.03228146210312843,0.015656903386116028,0.08585816621780396,-0.21842879056930542,0.6110436320304871,-0.7608643770217896,-0.005066707730293274,0.0042822957038879395,-0.006072878837585449,0.46663523683618346,-0.06094828532220369,-0.34037204573794416,0.8140539399960643,-0.6573783255996779,-0.2795616720863709,2.0046958475998022
1761602709126572544,3.0385725498199463,-0.01740923896431923,0.010646099224686623,0.07581201195716858,-0.217442125082016,0.6118037700653076,-0.7605360746383667,-0.006160169839859009,0.002972841262817383,-0.0030137300491333008,0.46622570474459274,-0.0614585151176904,-0.3405213996853544,0.8141877360131482,-0.658338929563808,-0.2784772591358427,2.0058213367745124
1761602709136617728,3.0486176013946533,0.010596564039587975,-0.010155584663152695,0.06933280825614929,-0.2171204388141632,0.612929105758667,-0.7597213983535767,-0.009930342435836792,0.007584810256958008,-0.01154935359954834,0.4657927845625916,-0.06178347534152514,-0.3410602730772115,0.8141852754912969,-0.6597623573656177,-0.27836924667662494,2.006434848006583
1761602709146661632,3.058661460876465,0.04735470935702324,0.00334970373660326,0.054121363908052444,-0.21633048355579376,0.6138409376144409,-0.759210467338562,-0.010582983493804932,-0.000956416130065918,-0.007513165473937988,0.4653407445189509,-0.06223819270488678,-0.3413519986762016,0.8142869775770608,-0.6609168625322556,-0.27758495957055046,2.007472873484356
1761602709156706560,3.068706512451172,0.03304953873157501,0.029824987053871155,0.04194485768675804,-0.21507781744003296,0.6146045327186584,-0.7589485049247742,-0.021265581250190735,-0.005549967288970947,0.00466078519821167,0.464940305287404,-0.06287133915668003,-0.3414277927636045,0.8144352770937858,-0.6618845183777199,-0.27614873263448525,2.008722358629799
1761602709166750720,3.0787506103515625,0.02434210292994976,0.057591069489717484,0.03696039691567421,-0.21386493742465973,0.615281343460083,-0.7587428092956543,-0.029543250799179077,-0.002732515335083008,0.012633800506591797,0.46466460038743507,-0.06351137675874706,-0.3414599556482909,0.8145294565951605,-0.6627428349144909,-0.2747395881779073,2.0096925181842904
1761602709176795392,3.0887954235076904,0.014440735802054405,0.08783392608165741,0.02781057357788086,-0.21323245763778687,0.6153915524482727,-0.7588315010070801,-0.031259119510650635,-0.008580029010772705,0.022625446319580078,0.46465200968457127,-0.06382159840147102,-0.341337168458645,0.8145638846435703,-0.6628825931823608,-0.2739367608143752,2.0100116456624835
1761602709186840576,3.0988404750823975,0.013849347829818726,0.0941724181175232,0.025335878133773804,-0.21279722452163696,0.6151286959648132,-0.7591666579246521,-0.027879655361175537,-0.009125888347625732,0.028820037841796875,0.4647951772621384,-0.06398904562266355,-0.3410601982101101,0.8145850823594011,-0.6625491911960484,-0.27329029621945544,2.010046183282016
1761602709196884736,3.108884572982788,0.006923265755176544,0.09533143043518066,0.024313755333423615,-0.21234075725078583,0.614863932132721,-0.7595089077949524,-0.019821718335151672,-0.008098185062408447,0.028933346271514893,0.46493533232914436,-0.06416393777111803,-0.3407763684985781,0.8146101020301819,-0.662213388090207,-0.27261585236826535,2.0101002038527116
1761602709206929664,3.118929624557495,0.00042831525206565857,0.09964630752801895,0.01703791134059429,-0.2119254469871521,0.6147336363792419,-0.759730339050293,-0.0140419602394104,-0.009554803371429443,0.03437328338623047,0.46509275955186924,-0.0643713421858321,-0.3405747616103298,0.8145881622527863,-0.6620482022890842,-0.27203314998228706,2.010014282286652
1761602709216973568,3.1289734840393066,-0.009815268218517303,0.10137523710727692,0.012791233137249947,-0.21156617999076843,0.6146396994590759,-0.7599063515663147,-0.011929288506507874,-0.008850574493408203,0.04021036624908447,0.46527826631265085,-0.06457742187297413,-0.3404064757212351,0.8145361803480283,-0.6619291489039368,-0.2715344734439181,2.0098080356836965
1761602709227018496,3.1390185356140137,-0.010006981901824474,0.08543938398361206,0.0035853078588843346,-0.2113712728023529,0.6144536733627319,-0.7601110935211182,-0.008538380265235901,-0.009564757347106934,0.037683725357055664,0.4655045471578878,-0.06469788770164187,-0.34023322608093926,0.8144698036464535,-0.6616933422303543,-0.27122690015602374,2.00946246184135
1761602709237063680,3.1490635871887207,-0.010742813348770142,0.08531687408685684,-0.0019444799982011318,-0.21173176169395447,0.6143617630004883,-0.7600850462913513,-0.004866734147071838,-0.014279365539550781,0.038237571716308594,0.46577614302909415,-0.06462214674863169,-0.34026672276241315,0.8143065649835411,-0.6615768150857793,-0.27167590774575984,2.008648142747791
1761602709247107584,3.1591074466705322,-0.01789037138223648,0.07481566071510315,-0.0161858219653368,-0.21239575743675232,0.6144950985908508,-0.759791910648346,-0.003607630729675293,-0.017052531242370605,0.03878366947174072,0.466062078864741,-0.06449144486615113,-0.34050682698235213,0.8140528285170013,-0.661745850218764,-0.2725863949506221,2.0075064453016522
1761602709257152512,3.1691524982452393,-0.04069847986102104,0.07091093808412552,-0.01889265887439251,-0.21290311217308044,0.6147409081459045,-0.7594510912895203,-0.0024746954441070557,-0.01977020502090454,0.036199748516082764,0.46634093196751525,-0.06446369737040608,-0.3407622228655934,0.8137885191276695,-0.662057409693676,-0.2733222434221858,2.006405870184322
1761602709267196672,3.17919659614563,-0.06068434193730354,0.07610293477773666,-0.014825125224888325,-0.21310144662857056,0.6151928305625916,-0.7590293288230896,-0.0067471712827682495,-0.023121297359466553,0.0327414870262146,0.4665753927546539,-0.06462120819788984,-0.34104168362281406,0.8135244339709572,-0.6626305171836205,-0.2737088837331984,2.005468671112417
1761602709277241344,3.189241409301758,-0.09366811811923981,0.0686601996421814,-0.02162151038646698,-0.21307837963104248,0.6158374547958374,-0.7585129737854004,-0.011241108179092407,-0.025123953819274902,0.02740335464477539,0.4667772718502289,-0.06492582775144008,-0.34136220401903433,0.8132500072288823,-0.6634484265425974,-0.273857844785697,2.0046263299380973
1761602709287285504,3.1992855072021484,-0.12061548233032227,0.08718451857566833,-0.03140188008546829,-0.21292293071746826,0.6167059540748596,-0.7578505873680115,-0.009748578071594238,-0.01863771677017212,0.030372560024261475,0.4669897290931366,-0.06536684637050688,-0.34176289473307137,0.8129242395156278,-0.664551291470821,-0.27389530276465546,2.003704244180385
1761602709297330688,3.2093305587768555,-0.1406552493572235,0.09253054857254028,-0.043094757944345474,-0.2126772105693817,0.6177290678024292,-0.7570860385894775,-0.00306682288646698,-0.0108259916305542,0.02985215187072754,0.4672607797220307,-0.06592348010664213,-0.34221496725576206,0.8125333932335292,-0.6658516550919026,-0.2738574544260881,2.0026007940612063
1761602709307375104,3.2193751335144043,-0.15811222791671753,0.09272146224975586,-0.039294783025979996,-0.21236194670200348,0.6188607811927795,-0.7562498450279236,0.006154686212539673,-0.006891787052154541,0.021157681941986084,0.4675460854021503,-0.06655331945133945,-0.34270357751322056,0.8121118451262725,-0.6672915336188622,-0.27375897155573203,2.001437353463884
1761602709317419008,3.229418992996216,-0.15644961595535278,0.08882312476634979,-0.03375726938247681,-0.21202176809310913,0.6200338006019592,-0.7553839087486267,0.01640409231185913,-0.0077901482582092285,0.021909236907958984,0.46779912030193155,-0.06719515473606356,-0.3432096222710716,0.8116994738495643,-0.6687857935424986,-0.27363990777172337,2.0003419685808113
1761602709327464192,3.239464044570923,-0.14174307882785797,0.08213269710540771,-0.028295215219259262,-0.21169309318065643,0.6211052536964417,-0.7545954585075378,0.019462883472442627,-0.01627737283706665,0.022234618663787842,0.46803717739563305,-0.06779322033232765,-0.343666062952585,0.8113192440391477,-0.6701521977975534,-0.27350801944259023,1.9993323073213913
1761602709337507840,3.2495079040527344,-0.12019810080528259,0.06158188357949257,-0.017896903678774834,-0.2113955020904541,0.6220315098762512,-0.7539156079292297,0.016174569725990295,-0.01550990343093872,0.022607624530792236,0.4682307820394193,-0.06831172086700697,-0.3440577209705664,0.8109979625243444,-0.6713346003566644,-0.27337659383922674,1.9984957812366806
1761602709347553024,3.2595529556274414,-0.08736132830381393,0.04123826324939728,-0.007310837972909212,-0.21120738983154297,0.6227271556854248,-0.7533938884735107,0.013422980904579163,-0.007309675216674805,0.021033048629760742,0.46835492448740784,-0.06867691274212269,-0.34436397735733254,0.8107654463808862,-0.672223359655888,-0.27332513525300295,1.9978993159248393
1761602709357597952,3.2695980072021484,-0.06305491924285889,0.03732501342892647,-0.007856519892811775,-0.21112214028835297,0.6231821775436401,-0.7530413866043091,0.011201485991477966,3.248453140258789e-05,0.022969424724578857,0.4684549048467046,-0.06890732414780364,-0.34457376733538225,0.810598935940755,-0.6728050579264495,-0.2733418212243142,1.9974408447817826
1761602709367642112,3.279642105102539,-0.046570684760808945,0.02982894703745842,-0.008544769138097763,-0.21109244227409363,0.6235476136207581,-0.7527472376823425,0.004625767469406128,0.012484490871429443,0.014496445655822754,0.4685504911390688,-0.06908185741244356,-0.34475221875024686,0.8104529994942142,-0.673272374980847,-0.2734068380662982,1.997013059066164
1761602709377687040,3.289686918258667,-0.028764259070158005,0.0208602212369442,-0.007123174145817757,-0.21105614304542542,0.623821496963501,-0.7525304555892944,-0.002887353301048279,0.018695592880249023,-0.004091858863830566,0.46862919678248977,-0.06922195097011606,-0.34488126873869673,0.8103406537892279,-0.6736227300186897,-0.27343699381447767,1.9966826944312377
1761602709387731200,3.2997310161590576,-0.029367199167609215,0.021381134167313576,0.0006842375732958317,-0.2109200656414032,0.6240581274032593,-0.7523724436759949,-0.007570534944534302,0.022212624549865723,-0.016838431358337402,0.46866412770060306,-0.06937513532727117,-0.34496504646729276,0.8102717087974013,-0.6739255299277767,-0.2733239368904546,1.9965379860000982
1761602709397776128,3.3097760677337646,-0.04443402960896492,0.020776864141225815,-0.012106925249099731,-0.21063223481178284,0.624392569065094,-0.752175509929657,-0.010940656065940857,0.030636727809906006,-0.015784025192260742,0.468686918037851,-0.06962250295669013,-0.34505787892951323,0.8101977508267522,-0.6743536131388539,-0.2730371655054128,1.9964528936851924
1761602709407820032,3.319819927215576,-0.047199688851833344,0.026644039899110794,-0.0183249618858099,-0.21029116213321686,0.6247028112411499,-0.7520133256912231,-0.014196142554283142,0.030173897743225098,-0.010651469230651855,0.468745581820655,-0.06990068358547237,-0.3451191604823879,0.8101137185977745,-0.6747508780612291,-0.2726725665560455,1.996323252148011
1761602709417864960,3.329864978790283,-0.0605597048997879,0.03456481546163559,-0.008714413270354271,-0.20990432798862457,0.625081479549408,-0.7518067359924316,-0.013530120253562927,0.02401214838027954,-0.005044460296630859,0.46880863307487647,-0.07022364228462248,-0.34520324816038384,0.8100134805053681,-0.675235900561033,-0.2722665824426897,1.9961696800023954
1761602709427910144,3.3399100303649902,-0.06742340326309204,0.024002384394407272,-0.0022079553455114365,-0.20950661599636078,0.6256953477859497,-0.7514069080352783,-0.01801718771457672,0.026099085807800293,-0.00973200798034668,0.468826166294036,-0.07061015333394953,-0.3454138683956139,0.8098799998023251,-0.6760226019588148,-0.2719133356091802,1.9959999176826537
1761602709437954304,3.349954128265381,-0.07149564474821091,0.019985271617770195,0.006900854408740997,-0.2091841846704483,0.6265394687652588,-0.7507930994033813,-0.025053486227989197,0.02162337303161621,-0.012924551963806152,0.4687710498992082,-0.07100921836444091,-0.3457761439761289,0.809722347962841,-0.6771051986828017,-0.27172636774623954,1.9958337801731871
1761602709447998976,3.359998941421509,-0.06195633485913277,0.02468535117805004,0.020356299355626106,-0.20888225734233856,0.6274071931838989,-0.7501523494720459,-0.025446996092796326,0.010272860527038574,-0.0056612491607666016,0.4686731206214652,-0.07138903984650441,-0.34616099986737947,0.8095812595896356,-0.6782189926385,-0.2715737020567085,1.9957479603147548
1761602709458043136,3.3700430393218994,-0.06082022935152054,0.022854695096611977,0.028059491887688637,-0.20859479904174805,0.628073513507843,-0.7496744990348816,-0.02645157277584076,0.010659337043762207,-0.002599000930786133,0.4685693444233319,-0.07169323553886621,-0.34644311079564843,0.8094936921904332,-0.6790750387907653,-0.2713825535086229,1.9957834055483223
1761602709468088064,3.3800880908966064,-0.04691256582736969,0.011644018813967705,0.041304636746644974,-0.20833998918533325,0.6285703778266907,-0.7493288516998291,-0.025256812572479248,0.015259027481079102,-0.012252569198608398,0.46844695264632313,-0.07191869304614254,-0.34664573757342926,0.8094577587696291,-0.6797136609853297,-0.271186050654059,1.9959441296825005
1761602709478132992,3.3901329040527344,-0.03657737374305725,0.004035900346934795,0.03760230913758278,-0.208212748169899,0.6290956139564514,-0.7489233613014221,-0.01957044005393982,0.007623076438903809,-0.01880735158920288,0.4682815055281406,-0.07207894798574285,-0.34690482381988913,0.8094282631758982,-0.6803892089200508,-0.27116809417510473,1.996121845857312
1761602709488177152,3.400177001953125,-0.030099665746092796,0.0018552038818597794,0.033600907772779465,-0.20817819237709045,0.6295497417449951,-0.7485512495040894,-0.01270805299282074,-0.0012538433074951172,-0.016341328620910645,0.4681254106882665,-0.07217863769576192,-0.3471521565788905,0.8094036034863548,-0.6809735371037943,-0.2712535181930212,1.996264114339788
1761602709498222080,3.410222053527832,-0.023890772834420204,0.0005654352717101574,0.026447124779224396,-0.20815160870552063,0.6299119591712952,-0.7482538819313049,-0.00635644793510437,-0.006712496280670166,-0.014365077018737793,0.46800084645643913,-0.0722576667576082,-0.34734979248042736,0.8093838769885647,-0.6814398267145744,-0.271323126806654,1.996377300057462
1761602709508265984,3.4202659130096436,-0.022669047117233276,0.003913161810487509,0.023441126570105553,-0.20817254483699799,0.6302058696746826,-0.7480005025863647,-0.0003845691680908203,-0.014315366744995117,-0.010590195655822754,0.4679026292935721,-0.0723043203274238,-0.34752244180271136,0.8093622607081101,-0.68181832217555,-0.2714365866332034,1.9964368344651364
1761602709518310912,3.4303109645843506,-0.018403995782136917,0.008398990146815777,0.011037984862923622,-0.20827677845954895,0.6303722262382507,-0.7478312849998474,0.0012760758399963379,-0.022797822952270508,-0.008318006992340088,0.4678740590732511,-0.07230155099494948,-0.3476447277906989,0.8093265312004271,-0.682032632497069,-0.27162436971022036,1.996350950150828
1761602709528355072,3.440355062484741,-0.01713922619819641,0.01613623835146427,0.002505041193217039,-0.20845350623130798,0.6304725408554077,-0.7476974129676819,-0.0015989840030670166,-0.027765631675720215,-0.00703275203704834,0.4679054645110653,-0.07227052470071318,-0.34774739853519376,0.8092670400006183,-0.682161867640144,-0.2718899676079966,1.9961134369944746
1761602709538400256,3.4504001140594482,-0.008978769183158875,0.026740415021777153,-0.005376850720494986,-0.2086823582649231,0.6305540204048157,-0.7475649118423462,-0.0006987452507019043,-0.029907047748565674,-0.004815459251403809,0.46798713215733717,-0.07223182638545392,-0.3478506947588799,0.809178923965265,-0.6822668302433893,-0.2722198393422738,1.9957327654792614
1761602709548444928,3.460444927215576,-0.009502812288701534,0.031939636915922165,-0.013228205032646656,-0.208904430270195,0.6305603384971619,-0.74749755859375,-0.005466297268867493,-0.032598912715911865,-0.0047149658203125,0.4681170554781118,-0.07219183333132842,-0.3479074110679039,0.809082946596109,-0.6822749874329267,-0.2725187603260789,1.9952801868806311
1761602709558489088,3.470489025115967,-0.0013671214692294598,0.03503130003809929,-0.027290228754281998,-0.20908568799495697,0.6303662657737732,-0.7476105093955994,-0.010000020265579224,-0.027430474758148193,-0.00856924057006836,0.4683161446969882,-0.07213269060845406,-0.3478384787104764,0.8090026003978066,-0.6820249436544561,-0.27270445895014755,1.99479683284397
1761602709568534016,3.480534076690674,0.008290366269648075,0.03750824183225632,-0.031583331525325775,-0.20922748744487762,0.6300263404846191,-0.747857391834259,-0.011506140232086182,-0.02402353286743164,-0.005530059337615967,0.46856170538423997,-0.07206218432432901,-0.3476756397415673,0.8089366776292869,-0.6815870955425056,-0.2727947090163628,1.9943064204609247
1761602709578577920,3.4905779361724854,0.007330562919378281,0.0478663370013237,-0.037608735263347626,-0.2092178463935852,0.6296196579933167,-0.7482024431228638,-0.010127216577529907,-0.027370572090148926,-0.002850353717803955,0.4688288927975267,-0.07204543112514139,-0.3474308999908769,0.8088885040004162,-0.6810635829303776,-0.2726630837133204,1.9938882607406572
1761602709588623104,3.5006229877471924,-0.007502944674342871,0.050113480538129807,-0.04472097381949425,-0.20909708738327026,0.6292426586151123,-0.7485533356666565,-0.008706852793693542,-0.02731400728225708,-0.004483163356781006,0.46913078395316754,-0.0721023434559599,-0.34716652504759377,0.8088219641721002,-0.6805784158447188,-0.27239188118118784,1.9934306637828054
1761602709598668032,3.5106680393218994,-0.010048127733170986,0.04564070329070091,-0.043019481003284454,-0.20900776982307434,0.6288726925849915,-0.748889148235321,-0.002158612012863159,-0.029202282428741455,-0.008999645709991455,0.4694526266900138,-0.07215618613048573,-0.3469134106599346,0.8087390665467379,-0.6801024435661688,-0.27216503308405976,1.9929011699384034
1761602709608712192,3.52071213722229,-0.003189589362591505,0.029317554086446762,-0.049208663403987885,-0.20910659432411194,0.6284481883049011,-0.7492178082466125,0.0021363943815231323,-0.0269467830657959,-0.007450282573699951,0.469776689013846,-0.07210980080394326,-0.34668614211111604,0.8086524652894073,-0.6795566353012206,-0.27217383209648455,1.9922895158992366
1761602709618757120,3.530756950378418,0.015076765790581703,0.02701951190829277,-0.05762132257223129,-0.20931939780712128,0.6278989911079407,-0.7496187686920166,0.005599290132522583,-0.024246037006378174,-0.0048673152923583984,0.470123952795369,-0.07198139518786886,-0.3464235839978156,0.8085745957599935,-0.678850738862118,-0.2722986833260044,1.99162742856028
1761602709628801024,3.5408010482788086,0.022247161716222763,0.027515027672052383,-0.05377323180437088,-0.20963352918624878,0.6272326111793518,-0.7500886917114258,0.007012084126472473,-0.024601995944976807,-0.006014823913574219,0.4704905551758741,-0.07177745954280336,-0.3461266513032479,0.8085066352642907,-0.677994864077566,-0.27252490031200927,1.9909272269306926
1761602709638846208,3.5508460998535156,0.038316406309604645,0.027420219033956528,-0.05497165396809578,-0.20998775959014893,0.6265248656272888,-0.7505809664726257,0.0009575933218002319,-0.01924031972885132,-0.009535610675811768,0.47084425500404087,-0.07153647415821535,-0.345820836985428,0.808452979554846,-0.6770864326498649,-0.2727925958692672,1.9902599746815206
1761602709648890880,3.5608909130096436,0.04910753667354584,0.02442309819161892,-0.052499089390039444,-0.21036851406097412,0.6257880926132202,-0.7510887384414673,-0.004215806722640991,-0.010721564292907715,-0.009363532066345215,0.47118889548535436,-0.07127027922793072,-0.34550857019042974,0.8084091028922077,-0.6761414851892817,-0.273087306369325,1.9896160641820402
1761602709658935040,3.570935010910034,0.05128520354628563,0.03122667409479618,-0.048525385558605194,-0.21070058643817902,0.6250024437904358,-0.7516496777534485,-0.005699560046195984,-0.002092897891998291,-0.010343730449676514,0.4715367541391435,-0.07101050295239882,-0.345156020132693,0.8083798466166918,-0.6751346911438785,-0.2733031287090023,1.989020600682956
1761602709668980224,3.580980062484741,0.060251764953136444,0.023377839475870132,-0.04602157324552536,-0.21096506714820862,0.6241898536682129,-0.7522505521774292,-0.0037413686513900757,0.0014662742614746094,-0.0139695405960083,0.47185710530239755,-0.07075968110235036,-0.34477209428877353,0.8083788222623762,-0.6740941226161861,-0.27342150891443856,1.9885465512426124
1761602709679023872,3.5910239219665527,0.056112952530384064,0.03285150229930878,-0.048270344734191895,-0.2111012190580368,0.62331223487854,-0.7529397010803223,-0.00395616888999939,0.001657247543334961,-0.014470577239990234,0.47217938482634764,-0.07054444577393049,-0.3443161890782813,0.8084037335358928,-0.6729713509617136,-0.2733511875700045,1.9881766970096815
1761602709689069056,3.6010689735412598,0.05427626892924309,0.03588687255978584,-0.057319942861795425,-0.21112635731697083,0.6225094199180603,-0.7535965442657471,-0.004312500357627869,0.0027499794960021973,-0.00890040397644043,0.47251561120940394,-0.07040882449913112,-0.3438667356447346,0.808410358082822,-0.6719450698469177,-0.27315552851673053,1.9877910867541453
1761602709699113216,3.6111130714416504,0.04373707249760628,0.037889305502176285,-0.055020835250616074,-0.21110273897647858,0.6218236684799194,-0.7541690468788147,-0.005984053015708923,0.0013605356216430664,-0.007946431636810303,0.47284028938053463,-0.0703286631576936,-0.3434666791040002,0.8083974895777029,-0.6710691477895105,-0.272929280638254,1.9873933670848278
1761602709709158144,3.6211581230163574,0.037976790219545364,0.03458285704255104,-0.052477430552244186,-0.21106009185314178,0.621199905872345,-0.7546948790550232,-0.0017847567796707153,-0.0016625523567199707,-0.005971074104309082,0.4731559110011903,-0.07027353068923195,-0.34309503512430767,0.8083755020605962,-0.6702729594250221,-0.2726960026269294,1.9869930267647058
1761602709719203072,3.6312029361724854,0.0255451537668705,0.035932548344135284,-0.04231294244527817,-0.21106162667274475,0.6206471920013428,-0.7551490664482117,-0.000532001256942749,-0.0022389888763427734,0.00112074613571167,0.4734485185823662,-0.07021281230576955,-0.34277636920188165,0.8083446770509984,-0.6695678631888596,-0.27254187886265935,1.9865834338226926
1761602709729246976,3.641247034072876,0.021909406408667564,0.03650885447859764,-0.03193335980176926,-0.21107560396194458,0.6202883720397949,-0.7554398775100708,6.181001663208008e-05,0.002636432647705078,0.006111264228820801,0.4736971960231603,-0.0701925450970706,-0.34256833235560324,0.8082888759913018,-0.6691102910649175,-0.27245924208762623,1.986164379659937
1761602709739292160,3.651292085647583,0.02307666838169098,0.0392196886241436,-0.026986006647348404,-0.21103116869926453,0.6200202703475952,-0.7556723952293396,-0.0008829087018966675,0.008870720863342285,0.0078086256980896,0.4738955841131172,-0.07020676012016012,-0.3423957067521378,0.8082445386371032,-0.668768534737145,-0.27232494344251706,1.985851076468928
1761602709749337088,3.66133713722229,0.025177404284477234,0.03081791289150715,-0.01773480698466301,-0.2109300196170807,0.6197623610496521,-0.7559121251106262,-0.0031202882528305054,0.0072365403175354,0.006827652454376221,0.47406086235647593,-0.07023521459945453,-0.34221477318647375,0.8082216904156578,-0.668439831322212,-0.2721186335619851,1.9856450707537978
1761602709759380992,3.6713809967041016,0.025062087923288345,0.03749392554163933,-0.017217885702848434,-0.2108040452003479,0.619498610496521,-0.7561633586883545,-0.0002860128879547119,0.0050283074378967285,0.007384121417999268,0.47421156527792896,-0.0702663973290057,-0.34202476488112465,0.8082109754659046,-0.6681038323055004,-0.27187804824277073,1.985492291401267
1761602709769426176,3.6814260482788086,0.025902584195137024,0.03412315994501114,-0.019566882401704788,-0.21070435643196106,0.6192632913589478,-0.7563838958740234,4.152953624725342e-05,0.003096938133239746,0.009283065795898438,0.4743658532461981,-0.07029699101142242,-0.3418572567611719,0.8081886576571267,-0.6678041024370961,-0.2716803256797666,1.9852997611046
1761602709779470080,3.69146990776062,0.017949584871530533,0.03138170391321182,-0.018515732139348984,-0.21066240966320038,0.6190384030342102,-0.7565796971321106,0.004760310053825378,0.001750171184539795,0.008014023303985596,0.4745249502808828,-0.0703077012721042,-0.34171182680848683,0.808155909492284,-0.6675176821021824,-0.27156196279675293,1.985057222311382
1761602709789515008,3.701514959335327,0.018924834206700325,0.033134594559669495,-0.021978817880153656,-0.21055778861045837,0.6188238859176636,-0.7567843198776245,0.010164082050323486,0.0026513338088989258,0.009027361869812012,0.47467991832413975,-0.07034758591294983,-0.34155387884193117,0.8081282640217023,-0.667244560292959,-0.2713637908703483,1.9848538373013833
1761602709799559168,3.7115590572357178,0.015673115849494934,0.02901681698858738,-0.0298769548535347,-0.21051448583602905,0.6186540126800537,-0.756935179233551,0.011829763650894165,0.0033246874809265137,0.010292112827301025,0.4748436295862606,-0.07037916931692711,-0.34143692917652524,0.8080787324221496,-0.6670283975164165,-0.2712592154311235,1.9845688400907617
1761602709809604096,3.721604108810425,0.00977584533393383,0.0389287993311882,-0.03428386524319649,-0.2104817032814026,0.6185835003852844,-0.7570018768310547,0.010759398341178894,0.0009385943412780762,0.013456344604492188,0.4750244434725889,-0.07044645677059146,-0.34137420530560425,0.8079929922636522,-0.6669386253921653,-0.27119626772398037,1.9841791249102685
1761602709819649024,3.7316489219665527,0.01814323104918003,0.02984769083559513,-0.04055800661444664,-0.21046021580696106,0.618541955947876,-0.7570418119430542,0.007731974124908447,-0.002788841724395752,0.014579713344573975,0.4752276557598084,-0.07052787020781028,-0.3413281428551836,0.8078858356843913,-0.6668857114210629,-0.27115630695417403,1.9837115501522862
1761602709829693184,3.7416930198669434,0.01537364162504673,0.014938415959477425,-0.03125487640500069,-0.21058708429336548,0.6184610724449158,-0.7570725679397583,0.004700273275375366,-0.007026195526123047,0.009407222270965576,0.4754025860843898,-0.0705192185501105,-0.3413074199296651,0.8077923747981556,-0.6667828428731569,-0.27130138815836263,1.9832532188255394
1761602709839738112,3.7517380714416504,0.007552736904472113,0.011672581546008587,-0.022708790376782417,-0.21068038046360016,0.6184200048446655,-0.7570802569389343,0.007860556244850159,-0.0037349462509155273,0.012344598770141602,0.47551331287359866,-0.0705113553144736,-0.34130339925446757,0.8077297399085976,-0.6667305261217252,-0.27141313849932436,1.9829508109020877
1761602709849782016,3.761781930923462,0.009522810578346252,0.01764804869890213,-0.028856877237558365,-0.21073859930038452,0.6183983087539673,-0.7570818066596985,0.007003232836723328,0.002527594566345215,0.015275776386260986,0.4756309427123601,-0.07052830973129368,-0.34129878666534147,0.8076609781904172,-0.6667029492432965,-0.2714839904343009,1.9826394182404852
1761602709859826944,3.771826982498169,-0.0013769753277301788,0.030091403052210808,-0.025167066603899002,-0.21069210767745972,0.6183850765228271,-0.7571054697036743,0.0020281821489334106,0.005714595317840576,0.012827575206756592,0.4757693664991369,-0.0706027794924271,-0.34126602301889747,0.8075866917640725,-0.6666861013550941,-0.2714189094432179,1.9823297409589822
1761602709869872128,3.781872034072876,-0.003888203063979745,0.03968397527933121,-0.029003527015447617,-0.21048897504806519,0.6184406876564026,-0.7571164965629578,0.0013825595378875732,0.005185961723327637,0.009481668472290039,0.4759130337419877,-0.07077108336744489,-0.34122308622552433,0.8075053642813923,-0.6667568914502494,-0.2711661104315789,1.9820555184686874
1761602709879916288,3.7919161319732666,-0.017504412680864334,0.050078291445970535,-0.03319481015205383,-0.21020787954330444,0.6185577511787415,-0.7570990324020386,0.0005673766136169434,0.000994861125946045,0.005832552909851074,0.4760807164523487,-0.07100415359086103,-0.34118747317227943,0.8074011389810737,-0.6669058105485707,-0.27082740857766097,1.9817309750262875
1761602709889960960,3.8019609451293945,-0.03205828741192818,0.055839210748672485,-0.035050857812166214,-0.20990632474422455,0.6187973618507385,-0.7569868564605713,0.004919767379760742,-0.0008622407913208008,0.0034926533699035645,0.4762737697755148,-0.07129793356181247,-0.3412083887331181,0.8072525933615458,-0.6672108580392343,-0.27049571777953096,1.981285619610624
1761602709900005120,3.812005043029785,-0.03615476191043854,0.05217736214399338,-0.040601152926683426,-0.20967748761177063,0.6190537214279175,-0.7568407654762268,0.007361188530921936,-0.00034034252166748047,0.005330085754394531,0.4764905558915201,-0.0715755510928027,-0.34125733920574386,0.8070794555720959,-0.6675372173148375,-0.27026464706737463,1.9807313992392523
1761602709910050048,3.822050094604492,-0.034473441541194916,0.05438026413321495,-0.04558383673429489,-0.20955458283424377,0.6192402839660645,-0.7567221522331238,0.01053418219089508,-0.0011677742004394531,0.00847691297531128,0.4767448466115793,-0.07179937904868196,-0.34129718542924736,0.8068925417889814,-0.667774779267338,-0.2701541233989826,1.9800641960870717
1761602709920094976,3.83209490776062,-0.02330334670841694,0.05333390459418297,-0.04112677276134491,-0.20937706530094147,0.6194172501564026,-0.7566263675689697,0.010158330202102661,-0.006334364414215088,0.010151147842407227,0.4769903736330628,-0.07204031840990001,-0.3413165781343028,0.8067175857748367,-0.6680001857260914,-0.26996876461635855,1.9794539255072126
1761602709930139136,3.8421390056610107,-0.012779433280229568,0.05980469286441803,-0.04236922040581703,-0.20915427803993225,0.6195880770683289,-0.7565481066703796,0.006883785128593445,-0.006596803665161133,0.009859323501586914,0.4772228503031111,-0.07229348949939564,-0.34132035890864176,0.8065558463030147,-0.6682177968282884,-0.2697218020055058,1.9789052923880097
1761602709940184064,3.8521840572357178,0.0027995272539556026,0.05525095388293266,-0.03714596480131149,-0.20897430181503296,0.6196612119674683,-0.7565379738807678,0.001897275447845459,-0.0025805234909057617,0.004355967044830322,0.4774633725957951,-0.07249856495290424,-0.34128428836618346,0.8064103814925376,-0.668310971837925,-0.2695042339642883,1.9783681565912827
1761602709950227968,3.8622279167175293,0.018170394003391266,0.051955122500658035,-0.03404107689857483,-0.20879080891609192,0.6195997595787048,-0.7566389441490173,-0.001490578055381775,-0.003571927547454834,-0.0012497901916503906,0.47768538719764075,-0.07265214762940532,-0.3411776421277582,0.8063102177611802,-0.668232708193227,-0.2692446450311785,1.9779550363664484
1761602709960273152,3.8722729682922363,0.03137568011879921,0.05016228184103966,-0.040442515164613724,-0.20864374935626984,0.6193680167198181,-0.7568693161010742,0.0002544522285461426,-0.006987035274505615,6.389617919921875e-05,0.4779285066649037,-0.07274141622413242,-0.34098979859044554,0.8062376350516149,-0.6679374684788556,-0.2689860499069592,1.9775657921832432
1761602709970318080,3.8823180198669434,0.02388613671064377,0.04250110313296318,-0.04084714129567146,-0.20852282643318176,0.6190911531448364,-0.7571290135383606,0.0028343647718429565,-0.0013390779495239258,0.0021393895149230957,0.4781768988075386,-0.07280631331772311,-0.3407854649070058,0.8061708054396323,-0.6675849121310321,-0.2687497053818221,1.9771735709341867
1761602709980362240,3.892362117767334,0.015667088329792023,0.05115211382508278,-0.038923271000385284,-0.20835959911346436,0.6189041137695312,-0.7573268413543701,0.007813319563865662,-0.00153350830078125,0.002627134323120117,0.4784175844376534,-0.07291652151904995,-0.34061672076726024,0.8060893467274449,-0.6673467285892806,-0.26848247093088323,1.9767733083769279
1761602709990406912,3.902406930923462,0.004050879739224911,0.05195216089487076,-0.03701759874820709,-0.208131343126297,0.6188037395477295,-0.7574716806411743,0.005830317735671997,-0.006712675094604492,0.0024515390396118164,0.4786467443711507,-0.07307935418272331,-0.3404755233911656,0.805998208260365,-0.6672189148182445,-0.26815342329152503,1.9763887740821806
1761602710000451072,3.9124510288238525,-0.008038006722927094,0.05166640132665634,-0.032893694937229156,-0.2078920602798462,0.6187803149223328,-0.7575564980506897,0.0019289106130599976,-0.007589519023895264,0.004275858402252197,0.4788699140984357,-0.073270309434838,-0.34037217010813753,0.805892038474829,-0.6671891575671532,-0.26783109845671965,1.9759818879592472
1761602710010496256,3.9224960803985596,-0.02728833444416523,0.04679941013455391,-0.02790381945669651,-0.20768827199935913,0.618868350982666,-0.7575405240058899,0.002610132098197937,-0.009279727935791016,0.005450069904327393,0.4790679447987522,-0.07347262494333179,-0.3403402984497917,0.8057693836912599,-0.6673011919845959,-0.26758628700499926,1.9755543557150896
1761602710020541184,3.9325411319732666,-0.033937979489564896,0.041353512555360794,-0.02243501879274845,-0.20751383900642395,0.6190637946128845,-0.7574285268783569,0.004495665431022644,-0.008635938167572021,0.008298277854919434,0.4792375745437452,-0.07368636699167838,-0.3403763458022376,0.8056336194767634,-0.6675500564734175,-0.26740978438089436,1.9751196607194357
1761602710030585088,3.942584991455078,-0.03656016290187836,0.025624914094805717,-0.02500266022980213,-0.20745296776294708,0.6192690134048462,-0.7572774291038513,0.004114359617233276,-0.004355132579803467,0.009062767028808594,0.47938189741684795,-0.07384310119396648,-0.34045333096189434,0.8055008506591143,-0.6678113468471208,-0.26738585161753636,1.9746792999698557
1761602710040630016,3.952630043029785,-0.016195502132177353,0.014952031895518303,-0.027139848098158836,-0.20748095214366913,0.6193724274635315,-0.7571852207183838,0.0022044628858566284,0.0016755461692810059,0.006117105484008789,0.4795231859766498,-0.0739254675196702,-0.3405031868207034,0.8053881684618113,-0.6679430944639599,-0.2674512741457465,1.9742545266780178
1761602710050674176,3.962674140930176,-0.008401695638895035,0.008637342602014542,-0.02856135368347168,-0.20756550133228302,0.6194072365760803,-0.7571336030960083,-0.00270061194896698,0.0015339255332946777,0.004020810127258301,0.47965420060281877,-0.07395566609069218,-0.3405345356105004,0.8052941948077935,-0.6679874639024378,-0.26757252489549427,1.973862500108224
1761602710060719104,3.9727189540863037,-0.011930383741855621,0.01313995011150837,-0.026408454403281212,-0.20758454501628876,0.6194299459457397,-0.7571097612380981,-0.005046680569648743,0.002915024757385254,0.0045005083084106445,0.47976838191523646,-0.0740033169754431,-0.34054166552876386,0.8052186868991957,-0.6680163376772931,-0.2676039304297327,1.9735551038012158
1761602710070764032,3.9827640056610107,-0.021544961258769035,0.01990094967186451,-0.02829672396183014,-0.2075987458229065,0.6194688081741333,-0.7570740580558777,-0.006359994411468506,0.0018996000289916992,0.001397848129272461,0.4799005500584398,-0.07406612388462504,-0.3405542041628266,0.8051288734355551,-0.6680658434982321,-0.2676334053919277,1.973196961050727
1761602710080808192,3.9928081035614014,-0.023335671052336693,0.024570802226662636,-0.02216319739818573,-0.20759010314941406,0.6195530891418457,-0.7570074796676636,-0.0047054290771484375,-0.0016942024230957031,0.0036047697067260742,0.48004091397143794,-0.07415775493144358,-0.34058317181966136,0.8050244887291279,-0.6681732435707861,-0.26764521990417234,1.9728052820231399
