time,seconds_elapsed,rotationRateX,rotationRateY,rotationRateZ,gravityX,gravityY,gravityZ,accelerationX,accelerationY,accelerationZ,quaternionW,quaternionX,quaternionY,quaternionZ,pitch,roll,yaw
1761597248609083136,59.94908308982849,0.6435204148292542,2.0652599334716797,0.3993432819843292,-0.7322709560394287,0.11946094036102295,-0.6704538464546204,-0.02122330665588379,0.15190136432647705,-0.005693614482879639,0.13853241670957525,-0.40590401914106117,0.0038740431134593437,-0.9033469778438264,-0.11974691624949747,-0.8294389946644696,-2.8900243242965957
1761597248619129088,59.959129095077515,0.719940721988678,1.9668924808502197,0.4234340488910675,-0.7167180776596069,0.11831529438495636,-0.6872530579566956,-0.04875439405441284,0.17933788895606995,0.0020876526832580566,0.14195393953132024,-0.395426788851516,0.0033337800490363433,-0.9074556432489648,-0.11859308910584825,-0.8063819635190177,-2.8818819563085576
1761597248629175296,59.96917510032654,0.7755821347236633,1.8525882959365845,0.4287257492542267,-0.7016889452934265,0.11667728424072266,-0.702864944934845,-0.06801015138626099,0.21729181706905365,0.03593379259109497,0.14552277737275504,-0.385436689092307,0.0024680249942301328,-0.9111836840994433,-0.11694365100945692,-0.7845608884078209,-2.873280814415783
1761597248639220224,59.979220151901245,0.7677778005599976,1.7628486156463623,0.42356500029563904,-0.6870983242988586,0.11459498107433319,-0.7174705266952515,-0.06425970792770386,0.18116611242294312,0.07664716243743896,0.14914644348620518,-0.37584955897699124,0.001356731552857962,-0.9145986573180287,-0.11484728394908741,-0.7637776471527948,-2.8644579924462117
1761597248649266176,59.98926615715027,0.6985638737678528,1.7097694873809814,0.41012534499168396,-0.6727948784828186,0.11262425035238266,-0.731206476688385,-0.0636858344078064,0.13078394532203674,0.11305761337280273,0.15258724278228927,-0.366601425768338,0.00040687913764175256,-0.9177801574317997,-0.11286371391156058,-0.7438184781558657,-2.856156255786349
1761597248659312128,59.99931216239929,0.6447587013244629,1.6770535707473755,0.46805495023727417,-0.6585533022880554,0.11102249473333359,-0.7442994117736816,-0.06631547212600708,0.08657881617546082,0.13306283950805664,0.15597633990548043,-0.35756148948416044,-0.00028224504123287197,-0.9207720279740674,-0.11125184972701839,-0.7243514276653273,-2.8481732710834824
1761597248669358336,60.009358167648315,0.5993994474411011,1.6048976182937622,0.5269706845283508,-0.644424557685852,0.11010906100273132,-0.7566987872123718,-0.056930482387542725,0.09631182998418808,0.11195391416549683,0.15955453464154148,-0.34878386221670765,-0.0006448330256150201,-0.9235214505568585,-0.1103327759028696,-0.7054374016835478,-2.8400857447960077
1761597248679404288,60.01940417289734,0.6198909282684326,1.4957623481750488,0.5262972116470337,-0.6307617425918579,0.10927723348140717,-0.7682435512542725,-0.03627622127532959,0.14903879165649414,0.11290907859802246,0.16322392435146343,-0.340407460778419,-0.0009978641860403138,-0.9260020530243069,-0.10949590104883612,-0.6874416023074529,-2.8318684068669118
1761597248689450240,60.02945017814636,0.6965242028236389,1.3456112146377563,0.4690808057785034,-0.6180519461631775,0.10774217545986176,-0.7787190675735474,-0.0026450753211975098,0.16279613971710205,0.11577045917510986,0.1668050862759975,-0.3326220650901561,-0.0017366755231193922,-0.9281894034277728,-0.1079517253451589,-0.6708739331221657,-2.8236335485371455
1761597248699496192,60.039496183395386,0.8043118715286255,1.2699114084243774,0.43217363953590393,-0.6061789989471436,0.1050240695476532,-0.7883634567260742,0.043587446212768555,0.1122915968298912,0.13353252410888672,0.17028125533241317,-0.32528247357657775,-0.003093546231261429,-0.9301537815892005,-0.10521810328120768,-0.6554928150020095,-2.815271128621734
1761597248709542400,60.04954218864441,0.8391196727752686,1.217248797416687,0.44120070338249207,-0.5947088003158569,0.1014801561832428,-0.7975106239318848,0.053342223167419434,0.0650084912776947,0.11855554580688477,0.17381216734803848,-0.31815209596471083,-0.004891456136833732,-0.9319574277234018,-0.10165514260432629,-0.6407475550139301,-2.8065802906978408
1761597248719588352,60.05958819389343,0.844513475894928,1.1197047233581543,0.41242870688438416,-0.5837682485580444,0.09764688462018967,-0.8060271739959717,0.041486144065856934,0.08478718996047974,0.05788874626159668,0.17731733745682643,-0.31135134036111206,-0.006838778522560195,-0.9335803073850699,-0.09780272885066148,-0.6268189104665048,-2.7979184832514274
1761597248729634304,60.069634199142456,0.8760144114494324,1.056280493736267,0.37514713406562805,-0.5734924077987671,0.09329159557819366,-0.813881516456604,0.03130185604095459,0.08958498388528824,0.036537766456604004,0.18064735966914158,-0.30492262056935526,-0.009023820525290488,-0.9350440156688427,-0.0934274510722903,-0.6138323872979929,-2.789531288521758
1761597248739681024,60.07968091964722,0.838322103023529,1.0352275371551514,0.3949955105781555,-0.5634735822677612,0.08877337723970413,-0.821350634098053,0.03881537914276123,0.07315288484096527,0.05607658624649048,0.1839289557910156,-0.29866010453167474,-0.011261799837848922,-0.9364002979477848,-0.08889039190429394,-0.6012904456452605,-2.781264686611459
1761597248749726976,60.08972692489624,0.7170220017433167,0.9893561601638794,0.3925403356552124,-0.5536773204803467,0.08490709960460663,-0.8283913135528564,0.054013073444366455,0.11010022461414337,0.03079921007156372,0.18714499634780724,-0.29262940081319544,-0.013129294494901201,-0.9376418954198986,-0.08500945447655885,-0.5891854426255972,-2.7733956764926417
1761597248759772160,60.09977197647095,0.6810816526412964,0.9688150882720947,0.2843967378139496,-0.5442225337028503,0.08139785379171371,-0.8349827527999878,0.06997936964035034,0.12476364523172379,0.017630457878112793,0.18992312411291284,-0.28686767778177613,-0.014681816683978766,-0.9388400147261823,-0.08148801130709994,-0.5776234026817562,-2.7666129019336743
1761597248769818112,60.10981798171997,0.7791115641593933,0.9667455554008484,0.24265538156032562,-0.5348169803619385,0.07700768858194351,-0.8414514660835266,0.08156991004943848,0.05691870301961899,0.019948840141296387,0.1923613388466763,-0.28106969608004656,-0.016555336252803452,-0.9400653372791951,-0.07708400604224792,-0.5661773750932646,-2.7603483131795064
1761597248779864064,60.119863986968994,0.8415618538856506,0.8995647430419922,0.2453383356332779,-0.5256538391113281,0.07175781577825546,-0.8476667404174805,0.08880996704101562,0.03912780433893204,-0.013371467590332031,0.19483570384385976,-0.2753367447691754,-0.018876295857222083,-0.941208014472598,-0.07181954053275584,-0.5550813505987744,-2.753815838410331
1761597248789910016,60.12990999221802,0.9390007853507996,0.8371583223342896,0.19059999287128448,-0.5171151757240295,0.06562183797359467,-0.8533965945243835,0.08646637201309204,0.07709361612796783,-0.02236640453338623,0.19726191450058353,-0.26987369252597276,-0.0216773122619698,-0.9422239857674312,-0.06566902396878725,-0.544782588050804,-2.747188324953278
1761597248799955968,60.13995599746704,1.0205953121185303,0.8242899179458618,0.17426666617393494,-0.5088986754417419,0.058392178267240524,-0.8588437438011169,0.08590972423553467,0.06361708790063858,-0.006909430027008057,0.19960512740539918,-0.26448483265447553,-0.025018083097326213,-0.9431753940114279,-0.05842541046754163,-0.5349156143224544,-2.7404993061329055
1761597248810002176,60.150002002716064,1.0832091569900513,0.8038453459739685,0.15524503588676453,-0.5007500052452087,0.05041568726301193,-0.8641225099563599,0.09233325719833374,0.07446224987506866,-0.021573901176452637,0.20197881806279908,-0.25906309928394766,-0.028723983930730845,-0.9440687272791949,-0.05043706902980858,-0.5252018041311873,-2.7336180380403166
1761597248820048128,60.16004800796509,1.180069923400879,0.7882039546966553,0.08406024426221848,-0.4928073585033417,0.04145943745970726,-0.8691501617431641,0.08358189463615417,0.10290396213531494,-0.03633689880371094,0.2041967216737529,-0.253661107658091,-0.03287787496361131,-0.9449226407058783,-0.041471322866423355,-0.5158005932954269,-2.7268806971641038
1761597248830094080,60.17009401321411,1.2344828844070435,0.8171232342720032,0.06652358919382095,-0.4848382771015167,0.03146880120038986,-0.874037504196167,0.08322694897651672,0.07737214863300323,-0.025590181350708008,0.20627495365098664,-0.24814539924353873,-0.03748480878974164,-0.9457639137890322,-0.03147399868396009,-0.5064529634815711,-2.7202558108075654
1761597248840140032,60.180140018463135,1.2390587329864502,0.8349738717079163,0.07180304825305939,-0.47658801078796387,0.02117314003407955,-0.878871738910675,0.08729055523872375,0.0635894313454628,-0.008030056953430176,0.20837577496654827,-0.24245459945149322,-0.04218878151218267,-0.9465808959255088,-0.021174723218634513,-0.49689107605853294,-2.7136060615093234
1761597248850185984,60.19018602371216,1.2610889673233032,0.8243587613105774,0.0314156748354435,-0.4683193862438202,0.010636966675519943,-0.8834952116012573,0.07871672511100769,0.10438378900289536,0.0008963346481323242,0.21037328116979892,-0.2367432250379159,-0.046957834816863456,-0.9473598110344305,-0.01063716765145401,-0.4874177096661072,-2.707203731350688
1761597248860232192,60.20023202896118,1.306532621383667,0.8146586418151855,-0.01880009099841118,-0.46012306213378906,-0.0005157531704753637,-0.8878549933433533,0.08089637756347656,0.12107544392347336,0.013236463069915771,0.21216179451121084,-0.23102325915182953,-0.05196878194197483,-0.948111231042987,0.0005157531975244555,-0.47813387920294553,-2.7011742444211158
1761597248870276864,60.21027684211731,1.3221327066421509,0.8028049468994141,-0.05741459131240845,-0.4519980847835541,-0.012249297462403774,-0.8919348120689392,0.08883890509605408,0.12087662518024445,0.008283078670501709,0.21376498223796342,-0.2252981252538527,-0.05721329957071045,-0.9488265647164509,0.012249603834850178,-0.4690420613324896,-2.69547732636987
1761597248880322816,60.22032284736633,1.290380597114563,0.8045337796211243,-0.1216273158788681,-0.4439067542552948,-0.024159669876098633,-0.8957472443580627,0.07606315612792969,0.14148451387882233,0.006587088108062744,0.2150854670130096,-0.2196007427415593,-0.06246523489708996,-0.949532385592051,0.02416202130809119,-0.46009851109152117,-2.690417487103604
1761597248890369024,60.230368852615356,1.2580580711364746,0.8028080463409424,-0.20431527495384216,-0.4357493221759796,-0.03614690527319908,-0.8993419408798218,0.054127007722854614,0.15695074200630188,0.016865134239196777,0.2159919612687149,-0.21390214195808988,-0.06763804889484457,-0.9502727767118243,0.03615478296355792,-0.4511872381579668,-2.6862992468109397
1761597248900414976,60.24041485786438,1.2239609956741333,0.8142713308334351,-0.262694776058197,-0.42744180560112,-0.048210300505161285,-0.9027564525604248,0.035153597593307495,0.1620103418827057,0.040268659591674805,0.21650805714730434,-0.20816224211723341,-0.07273404202539238,-0.9510533275501905,0.04822899505284194,-0.44221163920867307,-2.6830775095838306
1761597248910460928,60.2504608631134,1.1427510976791382,0.827419102191925,-0.30550724267959595,-0.41899433732032776,-0.05993429571390152,-0.9060086607933044,0.019748151302337646,0.18922200798988342,0.07722753286361694,0.21671659566745924,-0.20243105796685293,-0.0775715788479561,-0.951860445666692,0.05997023573419666,-0.4331686515400705,-2.680671634728169
1761597248920506880,60.26050686836243,1.1220992803573608,0.8423259854316711,-0.35233765840530396,-0.4103008210659027,-0.0713372677564621,-0.9091557860374451,0.00138053297996521,0.2289300411939621,0.09476369619369507,0.2166528009828941,-0.19665164615515038,-0.08215982957557007,-0.9527011539902958,0.07139791392912866,-0.4239333928865051,-2.6790093342421697
1761597248930552832,60.27055287361145,1.19374418258667,0.8220390677452087,-0.38612571358680725,-0.40156906843185425,-0.08313324302434921,-0.912047803401947,-0.021343529224395752,0.23465301096439362,0.07502692937850952,0.21636697660542423,-0.19085228789860037,-0.08689943397400925,-0.9535246525895597,0.0832292967129314,-0.41475306155293196,-2.677802744981997
1761597248940599040,60.280598878860474,1.2572791576385498,0.802311360836029,-0.32822185754776,-0.3929888904094696,-0.09561622887849808,-0.9145585298538208,-0.033311158418655396,0.22200478613376617,0.0743485689163208,0.21620176278412265,-0.18506904425962353,-0.09203365725830254,-0.9542201425649278,0.095762529230643,-0.4058477115724168,-2.6762497749833383
1761597248950644992,60.2906448841095,1.241273045539856,0.7606381773948669,-0.3007044792175293,-0.3846902847290039,-0.10808403789997101,-0.9166958332061768,-0.039473533630371094,0.2539275288581848,0.08251309394836426,0.21627053693421183,-0.17943022248715249,-0.09724649150339555,-0.9547643956392015,0.10829559077120965,-0.39732939074903284,-2.6742540441587206
1761597248960690944,60.30069088935852,1.2355551719665527,0.697385311126709,-0.341884583234787,-0.3768472671508789,-0.12045583873987198,-0.9184097647666931,-0.043608635663986206,0.3045683801174164,0.10334634780883789,0.21622424667592166,-0.17406494560124874,-0.10245243898239789,-0.9552235258733491,0.12074904958024563,-0.3893761465207146,-2.6725380646976284
1761597248970736896,60.310736894607544,1.2276266813278198,0.64948970079422,-0.35842999815940857,-0.3694474995136261,-0.13285940885543823,-0.919704794883728,-0.0387251079082489,0.29121512174606323,0.13668477535247803,0.21596851775415302,-0.16896246944898152,-0.10769998693997043,-0.9556201505147992,0.13325340904335511,-0.3819729806912112,-2.671263368962118
1761597248980783104,60.32078289985657,1.1914424896240234,0.5956990122795105,-0.3588266372680664,-0.3624287247657776,-0.14511334896087646,-0.9206451773643494,-0.03166002035140991,0.26620709896087646,0.13925784826278687,0.21562940491002386,-0.16409613091213296,-0.1129153730156285,-0.9559426753579738,0.1456275295605475,-0.3750360549748618,-2.6702043069913075
1761597248990828032,60.330827951431274,1.1042962074279785,0.5178806185722351,-0.39865925908088684,-0.35601291060447693,-0.15678934752941132,-0.9212338924407959,-0.02603664994239807,0.2749839425086975,0.1298215389251709,0.21510194068323216,-0.1596366565073325,-0.11789479001285261,-0.9562155479608353,0.15743895482752948,-0.36877298892100235,-2.6696346688210526
1761597249000873984,60.3408739566803,1.0204795598983765,0.46734392642974854,-0.45357826352119446,-0.3500470817089081,-0.16785277426242828,-0.9215706586837769,-0.01624014973640442,0.2643951177597046,0.14079368114471436,0.21418499514796166,-0.15553513930965562,-0.12257033891600726,-0.9565093662841293,0.16865112842833171,-0.36300499939454184,-2.6699910714963733
1761597249010919936,60.35091996192932,0.9192942976951599,0.4117163419723511,-0.48087939620018005,-0.3444616198539734,-0.1781637817621231,-0.9217395782470703,-0.006063282489776611,0.2198965698480606,0.11453437805175781,0.21297336388600463,-0.1517609352808264,-0.12688114753197352,-0.9568240255998137,0.1791200662137414,-0.35763763939949267,-2.671106203737101
1761597249020966144,60.360965967178345,0.8378875851631165,0.3490031957626343,-0.5238714218139648,-0.3393428921699524,-0.18766003847122192,-0.9217538237571716,0.005526363849639893,0.19814282655715942,0.09881681203842163,0.21146810662148988,-0.14836543706662236,-0.13080820674426452,-0.9571614715259781,0.188779313425147,-0.35275096197324146,-2.672970665094949
1761597249031012096,60.37101197242737,0.728386402130127,0.28860217332839966,-0.5640697479248047,-0.33469828963279724,-0.19645218551158905,-0.9216200709342957,0.011150956153869629,0.19634537398815155,0.10127711296081543,0.20965720751225506,-0.14534315410389645,-0.1344072912557642,-0.9575249087241176,0.19773827038443,-0.34835283750615686,-2.6755771708994627
1761597249041058048,60.38105797767639,0.6294366121292114,0.22421230375766754,-0.6176462769508362,-0.33051034808158875,-0.2043454796075821,-0.9214151501655579,0.009892702102661133,0.1934354603290558,0.08929234743118286,0.20750294671417113,-0.14271095481693702,-0.13757188248111918,-0.9579405337448057,0.20579502940339567,-0.34440305663309073,-2.679041024509074
1761597249051104000,60.391103982925415,0.5725597739219666,0.1713504195213318,-0.6785730123519897,-0.32669782638549805,-0.21169114112854004,-0.9211164116859436,0.006812572479248047,0.16254258155822754,0.0742841362953186,0.204947415212184,-0.1404005275189018,-0.14046173049210545,-0.9584126455958644,0.213304999389772,-0.34083437736894945,-2.6834149539598147
1761597249061149952,60.40114998817444,0.4948437511920929,0.12695223093032837,-0.7155634164810181,-0.32317495346069336,-0.21860775351524353,-0.9207435250282288,-0.009741276502609253,0.13959775865077972,0.07037121057510376,0.2020838693882623,-0.13834376945368754,-0.14314067097449626,-0.9589232646479856,0.22038748320053433,-0.33755959971883776,-2.688487700659462
1761597249071196160,60.41119599342346,0.4237392246723175,0.09112366288900375,-0.7678396701812744,-0.3199252784252167,-0.22484542429447174,-0.920376181602478,-0.041128188371658325,0.13986922800540924,0.06191670894622803,0.1989174929703494,-0.13655617032728964,-0.1454795845288833,-0.9594894266900531,0.22678439547245927,-0.33453756274769103,-2.6943003857702927
1761597249081242112,60.421241998672485,0.37021344900131226,0.06470746546983719,-0.8016983270645142,-0.3168148994445801,-0.23072735965251923,-0.9199963212013245,-0.06700468063354492,0.09970013797283173,0.05085569620132446,0.19546571750236,-0.1349349405342772,-0.14762929227812072,-0.9600996460590137,0.23282513859085766,-0.3316463505246426,-2.700766836954381
1761597249091287040,60.43128705024719,0.25654172897338867,0.05549638718366623,-0.8239908814430237,-0.3137762248516083,-0.2358464002609253,-0.9197396039962769,-0.08310487866401672,0.05817306041717529,0.06362998485565186,0.19182794549373935,-0.1334679442402641,-0.14938709832378905,-0.9607662363994404,0.2380894432324896,-0.3287758592892119,-2.707774791781647
1761597249101333248,60.441333055496216,0.18253785371780396,0.025716889649629593,-0.8583317399024963,-0.3108479082584381,-0.24017612636089325,-0.9196135401725769,-0.09907945990562439,0.02862827479839325,0.0874754786491394,0.1879511988190468,-0.1321821589164571,-0.15073524583921813,-0.9614994892516647,0.2425472912761257,-0.32596273725211267,-2.715431092388465
1761597249111379200,60.45137906074524,0.08919058740139008,-0.00968530960381031,-0.8862621784210205,-0.30810099840164185,-0.24378074705600739,-0.9195894598960876,-0.10274186730384827,-0.008050307631492615,0.09524863958358765,0.18384457011387811,-0.1311029071988952,-0.1517145637592337,-0.9622868724731038,0.2462623158210673,-0.3232874931525955,-2.723687231456732
1761597249121424896,60.461424827575684,-0.009239344857633114,-0.05947546660900116,-0.9396094083786011,-0.3056681752204895,-0.2465881109237671,-0.9196528196334839,-0.091563880443573,-0.02720034122467041,0.10831248760223389,0.1794519164493179,-0.1303090396752157,-0.15229298510658468,-0.9631321205213441,0.2491580724162765,-0.32088641564035175,-2.7326481732074854
1761597249131470848,60.47147083282471,-0.08382915705442429,-0.1069263443350792,-1.0219745635986328,-0.30348849296569824,-0.24880291521549225,-0.9197781682014465,-0.08142971992492676,-0.04950639605522156,0.11979037523269653,0.1746162048524319,-0.12977228134833899,-0.15254534704702497,-0.9640530318716334,0.2514441153669804,-0.3187100226578455,-2.74260338335106
1761597249141516800,60.48151683807373,-0.16762658953666687,-0.1569351851940155,-1.1025384664535522,-0.3015754818916321,-0.25053077936172485,-0.919938325881958,-0.07513350248336792,-0.08101218938827515,0.12184262275695801,0.16928714124852967,-0.12949486419078493,-0.15251855909316023,-0.9650445448636927,0.25322847722698966,-0.3167816507012119,-2.7536284502929047
1761597249151563008,60.491562843322754,-0.2574203908443451,-0.19519123435020447,-1.1803455352783203,-0.29987794160842896,-0.25169727206230164,-0.9201748371124268,-0.07565614581108093,-0.10781505703926086,0.12714505195617676,0.16348312359409228,-0.12944945934313057,-0.15216906809072403,-0.9661059196598402,0.25443358688731443,-0.31503877860733703,-2.765704485580764
1761597249161608960,60.50160884857178,-0.3753214180469513,-0.22323380410671234,-1.2587602138519287,-0.29828721284866333,-0.25213873386383057,-0.9205709099769592,-0.08472365140914917,-0.11881768703460693,0.11402183771133423,0.15720631247616235,-0.12958666109662403,-0.1513996197455207,-0.9672494774772521,0.25488975173692524,-0.3133490303642359,-2.7788732348107987
1761597249171654912,60.5116548538208,-0.4801602363586426,-0.25605618953704834,-1.3509241342544556,-0.29678601026535034,-0.251732736825943,-0.9211670160293579,-0.10001876950263977,-0.12601381540298462,0.09726876020431519,0.1504121348656944,-0.12990467729859678,-0.15013744970969783,-0.9684832613828019,0.2544702299390073,-0.31168352449813713,-2.7932477002588216
1761597249181700864,60.521700859069824,-0.5321856737136841,-0.26622965931892395,-1.4111956357955933,-0.295303076505661,-0.2508746385574341,-0.9218774437904358,-0.12290981411933899,-0.15488708019256592,0.10782104730606079,0.1431503659917394,-0.13032161588839403,-0.14858518882604185,-0.969766323768414,0.25358369593990276,-0.3100003717729847,-2.808651058668206
1761597249191747072,60.53174686431885,-0.6345293521881104,-0.29391878843307495,-1.4373403787612915,-0.2939359247684479,-0.24937933683395386,-0.9227197170257568,-0.14252647757530212,-0.14675408601760864,0.10417723655700684,0.13563670816427478,-0.130858991047655,-0.14668359219489288,-0.9710626299020774,0.25203929741831876,-0.30839057410373133,-2.824653354235659
1761597249201793024,60.54179286956787,-0.6798216104507446,-0.30961963534355164,-1.4973540306091309,-0.2927219271659851,-0.24727094173431396,-0.9236725568771362,-0.1581752896308899,-0.09895098209381104,0.09321296215057373,0.127837139346194,-0.13153078443805008,-0.14444161037882827,-0.9723651777678864,0.2498627212825376,-0.30689829307725797,-2.8413090513311072
1761597249211837952,60.55183792114258,-0.6983683705329895,-0.32262226939201355,-1.5431455373764038,-0.29154202342033386,-0.24506394565105438,-0.9246333837509155,-0.16600802540779114,-0.09148390591144562,0.08688008785247803,0.11971666077497928,-0.1322434729481064,-0.1421089973783572,-0.9736450372398355,0.24758564933487903,-0.3054387598689833,-2.8586074077816424
1761597249221883904,60.5618839263916,-0.7224420309066772,-0.32778558135032654,-1.5486820936203003,-0.2904691696166992,-0.24272285401821136,-0.925588071346283,-0.16160297393798828,-0.09905877709388733,0.08997100591659546,0.11145780966566743,-0.13300676825404273,-0.13969665684097343,-0.9748699253302752,0.24517165766935559,-0.3040880697300295,-2.8761677372384615
1761597249231930112,60.571929931640625,-0.7532966136932373,-0.3311243951320648,-1.559766411781311,-0.2894577085971832,-0.24013805389404297,-0.9265786409378052,-0.16110381484031677,-0.09698963165283203,0.10794460773468018,0.10311981501910185,-0.13379134900651282,-0.1371516149450174,-0.9760407580625479,0.2425080640617848,-0.3027884107817742,-2.893895816630809
1761597249241976064,60.58197593688965,-0.7685540914535522,-0.3396947681903839,-1.5695466995239258,-0.288533091545105,-0.23728984594345093,-0.9276002049446106,-0.15059959888458252,-0.08329731225967407,0.1286042332649231,0.0947184771604896,-0.1346053614838536,-0.13446665443806577,-0.9771533007889771,0.23957505601268966,-0.30156632335119604,-2.911759108196516
1761597249252022016,60.59202194213867,-0.7458679676055908,-0.36844438314437866,-1.5963923931121826,-0.2877965271472931,-0.23455852270126343,-0.9285233020782471,-0.12234446406364441,-0.06271322071552277,0.14795994758605957,0.08619158120776205,-0.13549191376027586,-0.131834372075886,-0.9781782970459421,0.23676439184184525,-0.3005607748174765,-2.929802021304566
1761597249262067968,60.602067947387695,-0.7200928330421448,-0.3849514424800873,-1.6236076354980469,-0.28731271624565125,-0.23212330043315887,-0.9292847514152527,-0.09450796246528625,-0.04216870665550232,0.16176766157150269,0.07753968989488798,-0.1364796398297673,-0.12934805724178788,-0.9790965617112929,0.23426003814909263,-0.2998538946902389,-2.9479858717365746
1761597249272113920,60.61211395263672,-0.7050041556358337,-0.4140336811542511,-1.64736807346344,-0.28701093792915344,-0.229976087808609,-0.9299116730690002,-0.07451555132865906,-0.026020631194114685,0.15587908029556274,0.06876263542597977,-0.13753566162737801,-0.12699645514798538,-0.9799120566992127,0.23205311015124153,-0.2993673620837089,-2.9663272611327565
1761597249282160128,60.62215995788574,-0.7254722714424133,-0.42512425780296326,-1.6933465003967285,-0.28688472509384155,-0.22785930335521698,-0.9304715394973755,-0.06467777490615845,-0.01095600426197052,0.151434063911438,0.05979446104168246,-0.13867426263921417,-0.12463416923088584,-0.9806428418925274,0.22987858713978793,-0.29907392881402983,-2.985010225270026
1761597249292206080,60.632205963134766,-0.7726523280143738,-0.4127591848373413,-1.7364120483398438,-0.28668013215065,-0.22555960714817047,-0.9310947060585022,-0.055666059255599976,-0.004954919219017029,0.1725040078163147,0.05056970522733694,-0.1397749233056525,-0.1221294877660921,-0.9813205727499152,0.22751740528622677,-0.2986847814398427,-3.0042412182586133
1761597249302252032,60.64225196838379,-0.8351220488548279,-0.41887518763542175,-1.7651582956314087,-0.28641217947006226,-0.22284285724163055,-0.9318310618400574,-0.047877341508865356,0.009921714663505554,0.16999024152755737,0.041129415506233925,-0.1408387966122284,-0.11936876050161029,-0.9819490998441455,0.2247296917322071,-0.2981998438688747,-3.0239733907097235
1761597249312297984,60.65229797363281,-0.8507295250892639,-0.4069370627403259,-1.818693995475769,-0.28612351417541504,-0.21980474889278412,-0.9326409697532654,-0.04285594820976257,0.04210090637207031,0.16985416412353516,0.031442794311738645,-0.14188295442986001,-0.11639903990123565,-0.9825130213948309,0.22161432291732422,-0.2976730764020687,-3.044246025823193
1761597249322344192,60.662343978881836,-0.8145921230316162,-0.4027363657951355,-1.8448050022125244,-0.2856864929199219,-0.21705636382102966,-0.933418333530426,-0.046253204345703125,0.05871590971946716,0.17406469583511353,0.02157419176204518,-0.1428249635284305,-0.11354234707945025,-0.982977006131627,0.21879792779839663,-0.297011486512834,-3.0648420950324975
1761597249332389120,60.67238903045654,-0.8172579407691956,-0.4264185130596161,-1.8646754026412964,-0.28538987040519714,-0.21448305249214172,-0.9341036677360535,-0.044398337602615356,0.10712221264839172,0.14540737867355347,0.01162043621947124,-0.14380665365959458,-0.11076018205519222,-0.9833193106055794,0.21616254165420146,-0.2965157696096527,-3.085550482861498
1761597249342435072,60.682435035705566,-0.8134642243385315,-0.4314737915992737,-1.9204466342926025,-0.2852316200733185,-0.2119525969028473,-0.9347293972969055,-0.03305146098136902,0.1523365080356598,0.12750893831253052,0.0014624204378669333,-0.1448411406422934,-0.10796457586221357,-0.9835459323677807,0.21357252453015851,-0.29617380091555356,-3.1066394224569382
1761597249352481024,60.69248104095459,-0.7780308723449707,-0.44392672181129456,-1.9554885625839233,-0.2850901484489441,-0.2097710371017456,-0.935264527797699,-0.023427307605743408,0.1457146555185318,0.10358422994613647,-0.00893483141040002,-0.1458720702792618,-0.10530471073117488,-0.9836424133213449,0.21134078811706572,-0.2958756860819561,-3.128148456574818
1761597249362527232,60.70252704620361,-0.7806949019432068,-0.43344494700431824,-1.9713919162750244,-0.28496474027633667,-0.20780913531780243,-0.93574059009552,-0.02732163667678833,0.14349332451820374,0.07920372486114502,-0.01942389969088979,-0.1468849992395781,-0.10273508054647508,-0.9836122606199678,0.2093346579146386,-0.29561113372863596,3.13338264777785
1761597249372573184,60.71257305145264,-0.8242269158363342,-0.4012952744960785,-1.9933902025222778,-0.28465384244918823,-0.20569905638694763,-0.9363012909889221,-0.04778939485549927,0.16033467650413513,0.07155519723892212,-0.030012188445015773,-0.14777003109395853,-0.10006686601189077,-0.9834886217340771,0.2071779817045468,-0.2951403076871615,3.1114848291812143
1761597249382619136,60.72261905670166,-0.8613678216934204,-0.3532995581626892,-2.016813039779663,-0.2839948236942291,-0.20319366455078125,-0.9370481967926025,-0.06706416606903076,0.15493012964725494,0.05907273292541504,-0.04072493769166659,-0.14843473458316306,-0.09717532993022232,-0.9832931947061667,0.2046185393482119,-0.29427446262404494,3.0892362813718184
1761597249392665088,60.732665061950684,-0.89253830909729,-0.30831265449523926,-1.9941072463989258,-0.28293633460998535,-0.20038500428199768,-0.9379727840423584,-0.08400702476501465,0.12296189367771149,0.0382840633392334,-0.05143943242644191,-0.14883670698138468,-0.09413424445976182,-0.9830261424713156,0.2017508733699085,-0.2929667810187343,3.0668982692159297
1761597249402711040,60.74271082878113,-0.9235117435455322,-0.2832178473472595,-1.9592517614364624,-0.2816773056983948,-0.19713351130485535,-0.9390400648117065,-0.10162344574928284,0.11263033747673035,0.01632589101791382,-0.06200992383474639,-0.1490557082599757,-0.09089747446405314,-0.9826875826221937,0.19843318558865944,-0.29142286267653184,3.0447692335630228
1761597249412756992,60.75275683403015,-0.9241836667060852,-0.2857244312763214,-1.9527908563613892,-0.28045764565467834,-0.19363874197006226,-0.940131664276123,-0.11112865805625916,0.13609784841537476,-0.002769947052001953,-0.07245776740871024,-0.14922195557363926,-0.08756126312147515,-0.9822503321979574,0.19486973696910803,-0.28991241978927607,3.0228607050409226
1761597249422802944,60.762802839279175,-0.8638447523117065,-0.3218589425086975,-1.9592255353927612,-0.2795049250125885,-0.1903732419013977,-0.9410818219184875,-0.103963702917099,0.1448105126619339,-0.01701754331588745,-0.0828856525932975,-0.14948370587436938,-0.08434279509435934,-0.9816673594228965,0.1915423326272574,-0.28870577916981227,3.0010521219631765
1761597249432848896,60.7728488445282,-0.7617135643959045,-0.3577493131160736,-1.9888694286346436,-0.27892807126045227,-0.18791550397872925,-0.941746711730957,-0.10223647952079773,0.12886399030685425,-0.009211540222167969,-0.09334730883293728,-0.14993778255139298,-0.08151868271429596,-0.9808974042432144,0.18903941100844054,-0.28795001429692374,2.9793204670114224
1761597249442894080,60.782893896102905,-0.7025850415229797,-0.3746323883533478,-2.0098419189453125,-0.27861109375953674,-0.18637439608573914,-0.9421467185020447,-0.12032994627952576,0.11880847811698914,0.004173696041107178,-0.10386742443434967,-0.1505451343074113,-0.07913786366115665,-0.9799413082319193,0.18747058173044057,-0.28752506187520416,2.9576107335848976
1761597249452940032,60.79293990135193,-0.7063592672348022,-0.35603979229927063,-2.028571367263794,-0.27827876806259155,-0.18503375351428986,-0.942509114742279,-0.14680057764053345,0.10005755722522736,-0.016871988773345947,-0.11445113613158682,-0.15113014705681493,-0.07684481193830194,-0.9788540979664123,0.18610620750383738,-0.28709620974294064,2.935778936662543
1761597249462985984,60.80298590660095,-0.7424726486206055,-0.33115965127944946,-2.0385959148406982,-0.27774956822395325,-0.1836181879043579,-0.9429419636726379,-0.17427679896354675,0.04128420352935791,-0.07100456953048706,-0.12511056224587472,-0.1515830695197659,-0.07450901125681969,-0.977659619606231,0.18466596617289863,-0.2864551890225188,2.9137432621928863
1761597249473031936,60.813031911849976,-0.8302080631256104,-0.2865208089351654,-2.0728132724761963,-0.2769281268119812,-0.1815723329782486,-0.9435794949531555,-0.1817510426044464,0.00952950119972229,-0.08460342884063721,-0.1358694163139506,-0.15181207672073868,-0.07185638017753768,-0.9763857854917101,0.18258512663469786,-0.2854707303717636,2.8913689736648402
1761597249483077888,60.823077917099,-0.8726086616516113,-0.2500276565551758,-2.1455979347229004,-0.2756459414958954,-0.17905893921852112,-0.9444348812103271,-0.18623760342597961,0.012478724122047424,-0.05486321449279785,-0.14693464266195497,-0.15174852203369804,-0.06895615921407762,-0.9750014040746279,0.180029842626178,-0.28397538478372003,2.8682433554399926
1761597249493124096,60.83312392234802,-0.8845555782318115,-0.24574823677539825,-2.20348858833313,-0.27411746978759766,-0.17643947899341583,-0.9453722834587097,-0.18372249603271484,-0.0007455796003341675,-0.03915530443191528,-0.1583134138664648,-0.15152624286517274,-0.0659823199753894,-0.9734592799858182,0.17736799723374896,-0.2822179298225384,2.844416656135695
1761597249503170048,60.843169927597046,-0.8695746064186096,-0.26404961943626404,-2.2694485187530518,-0.2726312577724457,-0.17394763231277466,-0.9462633728981018,-0.17626702785491943,-0.004748031497001648,-0.019282221794128418,-0.16995645616751381,-0.15130825362099593,-0.06304057150943711,-0.9717234699501531,0.1748370102387873,-0.28051639090418656,2.820037556703889
1761597249513216000,60.85321593284607,-0.8222832679748535,-0.29258671402931213,-2.349031448364258,-0.2712951600551605,-0.17195942997932434,-0.9470105171203613,-0.16443482041358948,-0.004950970411300659,-0.004512310028076172,-0.18192865092183144,-0.15119166326307737,-0.060297877769388955,-0.9697459228078668,0.17281838714910103,-0.27900315488851435,2.7950203636267816
1761597249523261952,60.86326193809509,-0.6340628862380981,-0.28494495153427124,-2.9182562828063965,-0.2695007920265198,-0.1715797334909439,-0.9475915431976318,-0.15747064352035522,0.0011085569858551025,-0.010919809341430664,-0.19489812778349966,-0.15103185441700756,-0.05825472347288648,-0.9673729636860315,0.17243296610696027,-0.27708976733499974,2.768074751729781
1761597249533307904,60.873307943344116,0.27725937962532043,-0.66356360912323,-4.130115032196045,-0.2679796516895294,-0.17903833091259003,-0.9466425776481628,-0.3935498893260956,0.010840699076652527,-0.14423877000808716,-0.21288652085145104,-0.15219389832527724,-0.05929355665831509,-0.9633279004567943,0.18000890435386674,-0.27586648324690166,2.73165675573848
1761597249543354112,60.88335394859314,0.11779759079217911,-0.5540616512298584,-3.229588031768799,-0.2669253647327423,-0.19176587462425232,-0.9444451928138733,-0.5403561592102051,-0.6642826795578003,-0.1402563452720642,-0.2307827990175613,-0.1543564222525997,-0.06286100654586244,-0.9586250168355444,0.19296110587294546,-0.2754427310782658,2.695922668527255
1761597249553400064,60.89339995384216,-0.7380763292312622,-0.23187723755836487,-2.7984447479248047,-0.265044629573822,-0.19632300734519958,-0.944038450717926,-0.375855028629303,-0.8527034521102905,0.07753759622573853,-0.24546490355233333,-0.15497229582036634,-0.06296311402087669,-0.9548645482057053,0.1976065362367735,-0.27370976993958,2.665654336944992
1761597249563446016,60.90344595909119,-1.012420892715454,-0.1676509976387024,-2.5034022331237793,-0.26158440113067627,-0.19463226199150085,-0.9453527927398682,-0.34290778636932373,-0.16239288449287415,0.11463379859924316,-0.2588860541889448,-0.15386754213223047,-0.060401869780321575,-0.9516587764862434,0.19588252724180605,-0.2699511816221684,2.637059333822061
1761597249573491200,60.913491010665894,-0.9328131675720215,-0.39527592062950134,-2.732428550720215,-0.2594016194343567,-0.1917150616645813,-0.9465495944023132,-0.0055672526359558105,0.4310949444770813,0.03999441862106323,-0.2719604361482177,-0.15316067900482,-0.05715774823203438,-0.9483208116274189,0.1929093182377741,-0.26748250382638716,2.6090555960509594
1761597249583537152,60.92353701591492,-0.29404833912849426,-0.5988836288452148,-3.4859025478363037,-0.25832074880599976,-0.19350779056549072,-0.946480393409729,0.14818280935287476,0.8100239038467407,-0.027808547019958496,-0.2873720631501164,-0.1538150757371215,-0.05568416617391798,-0.9437465639248805,0.19473626569328872,-0.26643862505290894,2.576608582330101
1761597249593583104,60.93358302116394,0.17558759450912476,-0.6735922694206238,-3.6282460689544678,-0.2574518322944641,-0.2026110142469406,-0.9448107481002808,0.04752141237258911,0.5221605896949768,-0.11121952533721924,-0.3045974855329692,-0.15588902647901778,-0.05738675719447189,-0.93788370100063,0.20402350967869531,-0.2660315354624596,2.5409359840263317
1761597249603629056,60.943629026412964,0.0678294450044632,-0.5598742365837097,-3.389148712158203,-0.2562013566493988,-0.21280793845653534,-0.9429070353507996,-0.0924161970615387,0.053674012422561646,-0.05532294511795044,-0.3211504520232067,-0.15805217309634723,-0.05971599842446378,-0.931834686723875,0.21444782210530014,-0.26530899633092214,2.50652709434052
1761597249613675008,60.95367503166199,-0.2745859622955322,-0.4250974655151367,-3.139387369155884,-0.253842830657959,-0.2200935035943985,-0.9418718814849854,-0.22159048914909363,-0.060622438788414,0.016395866870880127,-0.3365751579355546,-0.15920758489738218,-0.06096717188008876,-0.9260956366557201,0.22191031960036087,-0.2632540161332699,2.473905434076158
1761597249623721216,60.96372103691101,-0.42931291460990906,-0.39822328090667725,-3.0785789489746094,-0.2509770393371582,-0.22413861751556396,-0.9416859149932861,-0.2261652648448944,0.09428633749485016,-0.011744201183319092,-0.35133003902546905,-0.15954343798007278,-0.06085163973442475,-0.9205488728849592,0.22605907955574187,-0.2604643762743037,2.442144070492947
1761597249633767168,60.973767042160034,-0.26481691002845764,-0.453380823135376,-3.1520841121673584,-0.24806194007396698,-0.22845104336738586,-0.9414219856262207,-0.17918413877487183,0.28913527727127075,-0.03710883855819702,-0.36608226925825693,-0.15995321462764436,-0.060860249980777,-0.9147101522667176,0.23048635967653944,-0.257640900025933,2.410193584447629
1761597249643813120,60.98381304740906,-0.18278416991233826,-0.49854958057403564,-3.2146759033203125,-0.24537673592567444,-0.23414349555969238,-0.9407268762588501,-0.12075789272785187,0.3532536029815674,-0.05439025163650513,-0.3809600038351418,-0.1608187211411301,-0.061431976334561815,-0.9084234219644272,0.23633747816925793,-0.25515224948143533,2.3778736584338063
1761597249653859072,60.99385905265808,-0.23420315980911255,-0.49491965770721436,-3.2676920890808105,-0.24253788590431213,-0.24000197649002075,-0.9399864077568054,-0.09629878401756287,0.31815749406814575,-0.02858048677444458,-0.3959949306221808,-0.16172891566188974,-0.062052887450218724,-0.9017655802488269,0.24236788816845756,-0.25251512395886716,2.3449457070656035
1761597249663905024,61.003905057907104,-0.32116857171058655,-0.4937823712825775,-3.2761623859405518,-0.23939350247383118,-0.24512508511543274,-0.9394702911376953,-0.10104535520076752,0.21889522671699524,-0.0004863739013671875,-0.41113492095192716,-0.1624121990933414,-0.06234684499850023,-0.8948201783687102,0.24764870981920134,-0.24950763919696642,2.311418707652046
1761597249673951232,61.01395106315613,-0.36119481921195984,-0.5175321102142334,-3.2591309547424316,-0.23619164526462555,-0.24949350953102112,-0.9391307234764099,-0.09753333032131195,0.13737192749977112,0.007184922695159912,-0.42619074325505935,-0.1629533846953063,-0.06229637537414031,-0.8876524096948352,0.25215718332209164,-0.2463902072661992,2.27772394743525
1761597249683996928,61.02399682998657,-0.3372344970703125,-0.5664713382720947,-3.25152325630188,-0.23325668275356293,-0.25367826223373413,-0.9387431144714355,-0.09399856626987457,0.12701505422592163,0.015174388885498047,-0.44106555446311857,-0.1636173252097939,-0.06211124607651641,-0.8802458485492802,0.25648102555822183,-0.2435453444298212,2.2441430468704984
1761597249694041856,61.03404188156128,-0.35251089930534363,-0.6218344569206238,-3.298553466796875,-0.23068705201148987,-0.25791865587234497,-0.9382224678993225,-0.08613120019435883,0.15457090735435486,0.03169780969619751,-0.45591024410523534,-0.16451276039492266,-0.0618409768802986,-0.8725004481142985,0.26086736257097987,-0.24109415575218437,2.210348265032833
1761597249704088064,61.0440878868103,-0.4237615764141083,-0.6311081647872925,-3.3428149223327637,-0.22814112901687622,-0.26182568073272705,-0.9377627372741699,-0.08271092176437378,0.14335644245147705,0.06367826461791992,-0.4708824828323393,-0.16539152550847216,-0.06135372087160415,-0.8643789788129861,0.2649133869150468,-0.23864625511833062,2.175909540319428
1761597249714134016,61.054133892059326,-0.5463439226150513,-0.6267454028129578,-3.372150421142578,-0.2253972589969635,-0.2647346258163452,-0.9376095533370972,-0.0857904851436615,0.10752332210540771,0.08832061290740967,-0.4859834140161185,-0.1659684646387103,-0.06041275399445021,-0.8559350585574893,0.26792872395668293,-0.23591905724737078,2.1407496276510427
1761597249724179968,61.06417989730835,-0.6326296925544739,-0.6212970018386841,-3.3733272552490234,-0.22248613834381104,-0.2666022479534149,-0.9377756118774414,-0.09533916413784027,0.0980994701385498,0.10717874765396118,-0.5010774534372663,-0.16621465654678494,-0.05903278401082813,-0.8472361478454083,0.26986596026410836,-0.2329419918477913,2.1051749662531805
1761597249734227456,61.07422733306885,-0.6706486940383911,-0.6164447665214539,-3.35524582862854,-0.219506174325943,-0.2677537798881531,-0.9381497502326965,-0.0916358083486557,0.10990160703659058,0.10863620042800903,-0.5160283142274502,-0.1662338840041352,-0.05737091876689861,-0.8383254942663355,0.27106094004941833,-0.22984299138246583,2.069526855681091
1761597249744273408,61.08427333831787,-0.679598331451416,-0.6159393787384033,-3.3328378200531006,-0.21655239164829254,-0.26859986782073975,-0.9385942220687866,-0.07580599188804626,0.13064518570899963,0.0822710394859314,-0.5307477458624426,-0.16616582694439644,-0.05560389196705248,-0.829218836863298,0.27193918640612214,-0.22675202648112625,2.0340384948297907
1761597249754319360,61.094319343566895,-0.6963821053504944,-0.6186174750328064,-3.344585418701172,-0.21361084282398224,-0.26921501755714417,-0.9390919208526611,-0.05083921551704407,0.15321773290634155,0.05504351854324341,-0.5452892069951442,-0.16602391659926136,-0.05375955204221505,-0.8198814170106378,0.2725778609809193,-0.22365971928120787,1.9985802558290626
1761597249764365312,61.10436534881592,-0.7145885825157166,-0.604377031326294,-3.3585801124572754,-0.21054479479789734,-0.2695882320404053,-0.9396771192550659,-0.03040674328804016,0.15650534629821777,0.05456054210662842,-0.5597400390174486,-0.16574741292200426,-0.051857912911607885,-0.8102651173662527,0.2729654172202204,-0.22042030845077645,1.9629208074788236
1761597249774411520,61.11441135406494,-0.7737648487091064,-0.569413959980011,-3.3434388637542725,-0.20726138353347778,-0.26952341198921204,-0.9404253363609314,-0.01415891945362091,0.14611032605171204,0.060237348079681396,-0.5740412951129176,-0.16522973095267016,-0.049864437184276536,-0.8004306194455847,0.2728981053000049,-0.21692332173967152,1.9271840794919364
1761597249784457216,61.124457120895386,-0.8422958850860596,-0.5442111492156982,-3.3564493656158447,-0.20372474193572998,-0.26866424083709717,-0.9414434432983398,-0.0032454729080200195,0.16766631603240967,0.053931236267089844,-0.5881945845858141,-0.16433806218433766,-0.04765797374861214,-0.7904105369969894,0.2720060234002611,-0.2131102534884347,1.8913546788717883
1761597249794503168,61.13450312614441,-0.8704921007156372,-0.5051913261413574,-3.3553802967071533,-0.1999019980430603,-0.2672702968120575,-0.9426589012145996,0.008541524410247803,0.1756565272808075,0.05258321762084961,-0.6022499182289867,-0.16313509547528962,-0.04535964846941338,-0.7801438626066148,0.27055916150505743,-0.2089661467859723,1.8553050194618546
1761597249804549120,61.14454913139343,-0.9361194372177124,-0.4392883777618408,-3.317476272583008,-0.19569924473762512,-0.26526927947998047,-0.9441048502922058,0.029164820909500122,0.15406322479248047,0.05418175458908081,-0.616060033900331,-0.16154593554645147,-0.04301713202072213,-0.7697548059061754,0.268483194352924,-0.20439093110626907,1.8194034560432304
1761597249814595328,61.154595136642456,-0.9558031558990479,-0.3715175688266754,-3.280256986618042,-0.19104985892772675,-0.2625707983970642,-0.9458099603652954,0.03364020586013794,0.1545996367931366,0.055429160594940186,-0.6295597362305665,-0.1595073893640831,-0.04064975026757818,-0.7593151450640252,0.26568552541379964,-0.1993140802374962,1.783826396857222
1761597249824640256,61.16464018821716,-0.9279614090919495,-0.3147773742675781,-3.2321619987487793,-0.18600375950336456,-0.2597240209579468,-0.9476001262664795,0.03669652342796326,0.15457573533058167,0.05488473176956177,-0.6426907634523739,-0.15722308170527277,-0.03848153450300909,-0.748831554481138,0.26273640392932435,-0.19382503211971042,1.7487440259986724
1761597249834686208,61.17468619346619,-0.9269264936447144,-0.26305797696113586,-3.134425640106201,-0.18072202801704407,-0.25665709376335144,-0.949455976486206,0.05015257000923157,0.17575499415397644,0.056298017501831055,-0.6553340336429415,-0.1547329346732157,-0.036465380046371926,-0.7384208226079697,0.2595618550020717,-0.18809270151900465,1.714502881929075
1761597249844732160,61.18473219871521,-0.9125764966011047,-0.23275098204612732,-3.0668835639953613,-0.17539548873901367,-0.2533360421657562,-0.9513449668884277,0.07163572311401367,0.20495042204856873,0.050649166107177734,-0.6674833299621256,-0.15210232427720047,-0.03453103623699494,-0.7281061197632087,0.256127252924012,-0.18231848971121115,1.6811604656085464
1761597249854778368,61.19477820396423,-0.8834324479103088,-0.21028003096580505,-3.0190134048461914,-0.1700776368379593,-0.24994014203548431,-0.9532069563865662,0.10608229041099548,0.20192073285579681,0.03986167907714844,-0.679229576350192,-0.14942097708033986,-0.032709120761522464,-0.7178096619572016,0.2526184322389418,-0.17656866103737603,1.6484926503993453
1761597249864824320,61.20482420921326,-0.8293359279632568,-0.18915750086307526,-2.9903807640075684,-0.16473454236984253,-0.24670526385307312,-0.9549863934516907,0.14057989418506622,0.17881892621517181,0.03631579875946045,-0.6906410865103013,-0.1467676979383436,-0.03108110981289881,-0.707466032959941,0.24927895305136072,-0.17081830067140832,1.616316446417778
1761597249874870272,61.21487021446228,-0.8017857670783997,-0.17783240973949432,-2.927748680114746,-0.15943554043769836,-0.24368007481098175,-0.9566610455513,0.16175487637519836,0.16595180332660675,0.03040677309036255,-0.7016882082343932,-0.1441904087591548,-0.02964136381388559,-0.6971113059410496,0.24615851335444802,-0.1651405737343679,1.5847267817156576
1761597249884916224,61.224916219711304,-0.8020499348640442,-0.15708984434604645,-2.880843162536621,-0.15421529114246368,-0.24047356843948364,-0.9583267569541931,0.17544026672840118,0.17048150300979614,0.022154271602630615,-0.7123640699348532,-0.14155987923939603,-0.028238894193483306,-0.6868048964674541,0.24285370316108995,-0.15955354395293678,1.553776425253932
1761597249894962432,61.23496222496033,-0.8108175992965698,-0.12212546914815903,-2.8416523933410645,-0.14893974363803864,-0.23702473938465118,-0.9600188732147217,0.18852104246616364,0.15902180969715118,0.03092646598815918,-0.7227402357816116,-0.13880755843242526,-0.02688911202236742,-0.6765028872537713,0.2393021690021227,-0.15391546760970887,1.523272077149645
1761597249905008384,61.24500823020935,-0.8519108891487122,-0.0694945752620697,-2.791728973388672,-0.14343009889125824,-0.2330966293811798,-0.9618179202079773,0.20669305324554443,0.1416202187538147,0.02820897102355957,-0.7328170865926189,-0.1357809020295938,-0.025584650621576922,-0.6662492113240975,0.2352608281212225,-0.14803307366578924,1.493233054303094
1761597249915054336,61.255054235458374,-0.8749967217445374,-0.024768389761447906,-2.7484941482543945,-0.13767562806606293,-0.2285590022802353,-0.9637458920478821,0.21714340150356293,0.14220952987670898,0.015335917472839355,-0.7425898555292285,-0.1324260044795475,-0.024298012997666957,-0.656074097465435,0.23059725397571168,-0.1418946530447409,1.4637021000668116
1761597249925100288,61.2651002407074,-0.8637106418609619,-0.02109472267329693,-2.7090725898742676,-0.13187216222286224,-0.22374755144119263,-0.9656845927238464,0.22902487218379974,0.15029174089431763,-0.0018599629402160645,-0.7520675539132727,-0.12893960090321058,-0.023071053657525868,-0.6459386369553536,0.22565781747608407,-0.13571872687704686,1.4346596955777309
1761597249935146240,61.27514624595642,-0.8210992217063904,-0.037157315760850906,-2.6855885982513428,-0.12631814181804657,-0.21902306377887726,-0.9675084352493286,0.25060099363327026,0.16705164313316345,-0.015218555927276611,-0.7612848533059176,-0.12556380052051086,-0.02189750730738146,-0.6357669215787377,0.22081310765739062,-0.12982589740426856,1.4059998853898836
1761597249945192448,61.285192251205444,-0.7784122824668884,-0.06424083560705185,-2.6757664680480957,-0.12116451561450958,-0.21450603008270264,-0.9691781401634216,0.2714025378227234,0.20382489264011383,-0.029677391052246094,-0.770268924196797,-0.12239529038397748,-0.02074391521715582,-0.6255195689014642,0.2161860564374077,-0.12437251044968002,1.3776398659767863
1761597249955237376,61.29523730278015,-0.6844924092292786,-0.09720011055469513,-2.6995925903320312,-0.11640924960374832,-0.21049463748931885,-0.9706394076347351,0.2859038710594177,0.25073206424713135,-0.05926781892776489,-0.7790868929081445,-0.11955332002962517,-0.019679671911086726,-0.6150962574922679,0.21208090284645087,-0.1193603903063342,1.3493422710642353
1761597249965283328,61.305283308029175,-0.5783541798591614,-0.10588431358337402,-2.704374313354492,-0.11189648509025574,-0.20739905536174774,-0.9718357920646667,0.28821179270744324,0.28499001264572144,-0.12478286027908325,-0.7877447405472253,-0.11715723865324237,-0.01887546536839766,-0.6044636303216216,0.20891545792050922,-0.11463449535711222,1.321037646283243
1761597249975329280,61.3153293132782,-0.5039944052696228,-0.1073589026927948,-2.7022664546966553,-0.10747120529413223,-0.2050790637731552,-0.9728270769119263,0.27029773592948914,0.3247079849243164,-0.21595466136932373,-0.7961982976015209,-0.11510863833480557,-0.018342928155956322,-0.5937018320577362,0.20654448740663284,-0.11002692597577207,1.2928640772681705
1761597249985375488,61.32537531852722,-0.5127755999565125,-0.07306967675685883,-2.6728720664978027,-0.10302264988422394,-0.2029399424791336,-0.9737564921379089,0.22758014500141144,0.3571605384349823,-0.27326804399490356,-0.8044328976864779,-0.11313599993741975,-0.0179443385007561,-0.5828943998376634,0.20435941802933305,-0.10540706786447898,1.264913638277332
1761597249995421440,61.335421323776245,-0.5800928473472595,-0.005910078063607216,-2.60166072845459,-0.09821458160877228,-0.20022369921207428,-0.9748150706291199,0.17043443024158478,0.3638894557952881,-0.2816393971443176,-0.8123962379701729,-0.11082554006397881,-0.01761182382083398,-0.5722062752469,0.20158623473913856,-0.10041316615444522,1.2374346391130917
1761597250005467392,61.34546732902527,-0.6493831872940063,0.06223691627383232,-2.493453025817871,-0.09297354519367218,-0.1965331733226776,-0.9760792255401611,0.12681753933429718,0.3602446913719177,-0.28089404106140137,-0.8199871923728961,-0.1079868904373989,-0.0172981132041074,-0.561836761932832,0.19782086767829687,-0.09496553676439476,1.2108478794142097
1761597250015513344,61.35551333427429,-0.6837587356567383,0.11281806975603104,-2.3868753910064697,-0.08746294677257538,-0.1920955926179886,-0.9774709939956665,0.10955767333507538,0.3602016568183899,-0.276084303855896,-0.8271639238384425,-0.10476044618222927,-0.017022353322818182,-0.5518471236957088,0.19329706754461443,-0.08924115688572057,1.1853397705058664
1761597250025559552,61.365559339523315,-0.6849755048751831,0.14252163469791412,-2.2779884338378906,-0.08184346556663513,-0.18724428117275238,-0.9788979887962341,0.11446675658226013,0.3613775968551636,-0.27624422311782837,-0.8339167219938359,-0.10133191225237108,-0.01681846410980914,-0.5422470547635321,0.18835605286778004,-0.08341375859412317,1.160973168715154
1761597250035605504,61.37560534477234,-0.6229398250579834,0.14722184836864471,-2.187730073928833,-0.07633759081363678,-0.18246382474899292,-0.9802446365356445,0.12554717063903809,0.3605644106864929,-0.26294994354248047,-0.8402624845488408,-0.09797016490538978,-0.01671928285077573,-0.5329926734655102,0.18349175774253007,-0.07771919794592023,1.1376960973580033
1761597250045651456,61.38565135002136,-0.5437800288200378,0.1241048127412796,-2.097907304763794,-0.07123509049415588,-0.17824237048625946,-0.981404721736908,0.13782444596290588,0.33845967054367065,-0.23580414056777954,-0.8462233542368317,-0.09496406565158104,-0.016717283864555163,-0.5240308752400813,0.17919992363673184,-0.072457757233546,1.1154320916565243
1761597250055697408,61.395697355270386,-0.504827618598938,0.11920806020498276,-2.0102603435516357,-0.06650851666927338,-0.17438675463199615,-0.9824285507202148,0.14550326764583588,0.30787062644958496,-0.18898868560791016,-0.8518154653360016,-0.09222174437484443,-0.016759163904055182,-0.5153879297779195,0.1752829487627419,-0.06759493309756749,1.0941853432057906
1761597250065743104,61.40574312210083,-0.48291322588920593,0.1289730668067932,-1.9326189756393433,-0.06197293475270271,-0.17067769169807434,-0.9833760857582092,0.14276821911334991,0.26564839482307434,-0.13596290349960327,-0.8570875420811732,-0.08959896567119985,-0.016852114310642242,-0.5070393926013411,0.17151740617206396,-0.06293735355351551,1.0738292088576862
1761597250075789312,61.41578912734985,-0.4602481424808502,0.12366965413093567,-1.8659648895263672,-0.05759570002555847,-0.16703380644321442,-0.9842674732208252,0.13950487971305847,0.21477855741977692,-0.0902564525604248,-0.8620841813293116,-0.08705187361221939,-0.0169775943378619,-0.4989434818615756,0.1678204386540298,-0.058449655859051645,1.0542346421618185
1761597250085834240,61.42583417892456,-0.4585309326648712,0.11930952221155167,-1.7779459953308105,-0.05346475541591644,-0.16342146694660187,-0.9851065874099731,0.13407693803310394,0.17367537319660187,-0.059952616691589355,-0.866800031663032,-0.08458588700700415,-0.01708640213494463,-0.49113241671193203,0.16415775917218958,-0.05421987245595554,1.0354647000386836
1761597250095880192,61.435880184173584,-0.4727756381034851,0.11026249825954437,-1.7384828329086304,-0.04956180974841118,-0.15959179401397705,-0.9859381914138794,0.12970097362995148,0.15516674518585205,-0.031670451164245605,-0.8712761770614913,-0.08208487624796403,-0.01711681710648282,-0.4835772567770629,0.16027714061212928,-0.050226400053964546,1.0174156555182672
1761597250105926400,61.44592618942261,-0.4663854241371155,0.10394950956106186,-1.7229642868041992,-0.045830536633729935,-0.15566299855709076,-0.9867464900016785,0.12377242743968964,0.13855789601802826,0.011282622814178467,-0.8756278454311052,-0.07958827455905874,-0.017101848423625634,-0.47607669019812404,0.156298601013335,-0.046412755032554674,0.9996182607910362
1761597250115972352,61.45597219467163,-0.44735127687454224,0.09461460262537003,-1.7087042331695557,-0.0422942116856575,-0.15175163745880127,-0.9875133633613586,0.1128813773393631,0.10844719409942627,0.05834466218948364,-0.8798753627755955,-0.07715225608922639,-0.017054268972741576,-0.46858950860726345,0.15234019841104426,-0.042802844945195734,0.9819827738264216
1761597250126018304,61.466018199920654,-0.44516661763191223,0.09837251901626587,-1.6483349800109863,-0.0389038510620594,-0.14794392883777618,-0.988230288028717,0.0979553759098053,0.08159871399402618,0.10535675287246704,-0.8839600692039289,-0.07480018379663929,-0.017023279879278902,-0.46122648472963773,0.14848899698133602,-0.03934687525822885,0.964754937054434
1761597250136064256,61.47606420516968,-0.45250630378723145,0.09373356401920319,-1.616811990737915,-0.035593170672655106,-0.14395476877689362,-0.9889439344406128,0.079630047082901,0.09613373875617981,0.12326711416244507,-0.8878714042939092,-0.07238725238610597,-0.01697369249745561,-0.4540446054386485,0.14445665961001047,-0.03597556108572602,0.9480324001460179
1761597250146110208,61.4861102104187,-0.4044561982154846,0.05873852223157883,-1.6123830080032349,-0.03260617330670357,-0.1401016265153885,-0.9896001219749451,0.07092098891735077,0.11666412651538849,0.13065236806869507,-0.8916742121824796,-0.07011289518898269,-0.016856125529586763,-0.4468972288692366,0.14056405908049027,-0.03293692103407749,0.9315154593864287
1761597250156156416,61.496156215667725,-0.36214280128479004,0.04000105336308479,-1.604166030883789,-0.02996630221605301,-0.1367167830467224,-0.9901568293571472,0.07479662448167801,0.10395616292953491,0.13667172193527222,-0.895388849850845,-0.0681311086767036,-0.016725391226198746,-0.4397239447809333,0.13714630927763075,-0.030254963055019117,0.9150798871149721
1761597250166202368,61.50620222091675,-0.35898488759994507,0.01660841330885887,-1.5686311721801758,-0.02760288119316101,-0.133499875664711,-0.9906643629074097,0.06239292025566101,0.10260084271430969,0.14435088634490967,-0.8989858305041932,-0.06628739057524627,-0.01654703728943007,-0.43261610376802456,0.13389963776041675,-0.027855793149858865,0.8989010797227427
1761597250176248320,61.51624822616577,-0.36214739084243774,-0.0027122870087623596,-1.5442163944244385,-0.02555083855986595,-0.13018620014190674,-0.9911602735519409,0.04203033447265625,0.12075626850128174,0.13619506359100342,-0.9024583673348139,-0.0644661638103589,-0.016247196819247058,-0.42561611413904454,0.1305567710278296,-0.025773007272352134,0.8830564776258777
1761597250186294272,61.526294231414795,-0.3589440882205963,-0.04810909554362297,-1.5432995557785034,-0.02387302741408348,-0.12684406340122223,-0.9916353225708008,0.03228062018752098,0.14747396111488342,0.11790186166763306,-0.9058510024369911,-0.0627101802988549,-0.01580379959302002,-0.41863061554427894,0.12718669582353806,-0.024069752007922503,0.8673410652836627
1761597250196340224,61.53634023666382,-0.33056384325027466,-0.0953032374382019,-1.5627204179763794,-0.02271842584013939,-0.12363370507955551,-0.992067813873291,0.026975631713867188,0.1647866666316986,0.10815668106079102,-0.909203582001713,-0.06112152385921893,-0.015173781104993896,-0.41156155307213765,0.12395085596334887,-0.0228960717739971,0.8515512151691347
1761597250206386432,61.54638624191284,-0.3247973322868347,-0.11929935216903687,-1.5530803203582764,-0.021981988102197647,-0.12063224613666534,-0.9924538731575012,0.015542780980467796,0.15362174808979034,0.11740809679031372,-0.9125036724215825,-0.059709057955211,-0.014418765322029068,-0.40443059853935176,0.12092675800702324,-0.022145507068839606,0.8357265634670352
1761597250216432384,61.556432247161865,-0.3377368450164795,-0.15246424078941345,-1.5416133403778076,-0.02159986086189747,-0.1175181046128273,-0.9928358197212219,-0.007803827524185181,0.1529337465763092,0.12395459413528442,-0.9157252058651527,-0.05830706806511624,-0.013504902703513441,-0.3973224957405499,0.11779029953735275,-0.021752290749024922,0.8200325852847867
1761597250226477312,61.56647729873657,-0.2946479320526123,-0.17579089105129242,-1.5288023948669434,-0.021521011367440224,-0.11458159238100052,-0.9931806921958923,-0.028283677995204926,0.15739774703979492,0.13720840215682983,-0.9188671347054899,-0.05703609303206217,-0.012511335688224389,-0.3902223877934713,0.114833804766738,-0.021665385870696652,0.804440618274638
1761597250236523264,61.576523303985596,-0.32272642850875854,-0.2253512591123581,-1.4815715551376343,-0.021882548928260803,-0.11174724996089935,-0.9934957027435303,-0.0439591258764267,0.17530010640621185,0.11436057090759277,-0.9218871992917553,-0.05588403940907391,-0.011363270352057893,-0.3832387214753509,0.11198114126508091,-0.02202225033800123,0.789187660467021
1761597250246569472,61.58656930923462,-0.36716288328170776,-0.2804294228553772,-1.4814008474349976,-0.02286554127931595,-0.10850440710783005,-0.9938329458236694,-0.05022405833005905,0.21858131885528564,0.07383483648300171,-0.9248173239570125,-0.05464444661937702,-0.009874327798750701,-0.3763368653670123,0.1087184523396669,-0.023003370004702338,0.7741859299077287
1761597250256615424,61.59661531448364,-0.37453505396842957,-0.33594992756843567,-1.500921368598938,-0.02440904825925827,-0.10499017685651779,-0.9941736459732056,-0.05173230916261673,0.2133123278617859,0.051684021949768066,-0.9277291679016574,-0.05336419209745378,-0.00808913952624636,-0.36933108375114626,0.10518402283731154,-0.024547165766885252,0.7590309205131457
1761597250266661376,61.606661319732666,-0.3952634930610657,-0.38831594586372375,-1.473971962928772,-0.02659909427165985,-0.10142076015472412,-0.9944879412651062,-0.04540713131427765,0.17751634120941162,0.03669381141662598,-0.9305794173672086,-0.05215228009184162,-0.0060129809993051935,-0.362306373924394,0.10159544117579217,-0.02674014676516543,0.7439156224200604
1761597250276707328,61.61670732498169,-0.42861106991767883,-0.4380531311035156,-1.4659854173660278,-0.02938896231353283,-0.09756417572498322,-0.9947952032089233,-0.05375617742538452,0.1572565734386444,0.041456639766693115,-0.9333447482363473,-0.05088443766572746,-0.0036285618252883197,-0.35533811652562747,0.09771962656372629,-0.02953413557168094,0.7289871359500465
1761597250286753536,61.62675333023071,-0.48271632194519043,-0.4662701487541199,-1.4466742277145386,-0.03260626271367073,-0.09334036707878113,-0.995100200176239,-0.06247124820947647,0.13157889246940613,0.046079814434051514,-0.9360429608451212,-0.049486334496782046,-0.0010013273354222746,-0.3483874375813298,0.09347644083638246,-0.03275509526630355,0.714144942022543
1761597250296799488,61.636799335479736,-0.5182721614837646,-0.5003607869148254,-1.4664593935012817,-0.036208733916282654,-0.08863408863544464,-0.995405912399292,-0.061752691864967346,0.11564214527606964,0.03854250907897949,-0.9386848696373228,-0.04789109856135692,0.0018674551712061721,-0.34142909285007506,0.08875055596942365,-0.03635981491955108,0.6993245605456347
1761597250306845440,61.64684534072876,-0.4118281602859497,-0.5296213030815125,-1.5113651752471924,-0.04019353538751602,-0.08435516059398651,-0.9956247806549072,-0.05868341773748398,0.09187774360179901,0.05513405799865723,-0.9413186851503796,-0.046521911072792035,0.004829626609499112,-0.3342629090051765,0.08445552225676045,-0.04034825315041341,0.6841283939613738
1761597250316891392,61.65689134597778,-0.30589401721954346,-0.572693943977356,-1.4763808250427246,-0.044580936431884766,-0.08133013546466827,-0.9956896901130676,-0.06856298446655273,0.06396563351154327,0.06108886003494263,-0.9438716980840439,-0.045770985993565334,0.0077572129485102784,-0.3270336905501664,0.08142006545798006,-0.044744042621885305,0.6688958181130144
1761597250326937344,61.66693735122681,-0.275022029876709,-0.6199225187301636,-1.4572986364364624,-0.04949229210615158,-0.078997403383255,-0.9956454634666443,-0.08167225122451782,0.09776571393013,0.04177284240722656,-0.9462877439620963,-0.04539327622157402,0.010803248006516811,-0.3199408802430409,0.07907979719750542,-0.049667867403876964,0.6540359318103743
1761597250336983552,61.67698335647583,-0.2762441635131836,-0.6484428644180298,-1.4754453897476196,-0.05481099337339401,-0.07690193504095078,-0.9955309629440308,-0.09210062772035599,0.12582162022590637,0.02614009380340576,-0.948638951884513,-0.04514966570072958,0.014001402436577496,-0.31280899532271667,0.07697793475656849,-0.05500151790282177,0.6391537024811552
1761597250347029248,61.687029123306274,-0.28517523407936096,-0.6460849642753601,-1.5036063194274902,-0.0602855421602726,-0.07484621554613113,-0.9953711628913879,-0.0743122398853302,0.11058229953050613,0.01680976152420044,-0.9509611377602363,-0.0449018526899166,0.017270090793975935,-0.30554608274058564,0.07491627428331432,-0.06049199818484223,0.6240354405614501
1761597250357075200,61.6970751285553,-0.3001057207584381,-0.6472514867782593,-1.54874849319458,-0.06575824320316315,-0.0727812871336937,-0.9951777458190918,-0.054328419268131256,0.0913817510008812,0.022414684295654297,-0.9532790829419513,-0.04459836956183321,0.020545428846401134,-0.29807358312121435,0.07284569528578531,-0.06598097043277083,0.6085071975842807
1761597250367121152,61.70712113380432,-0.3129212260246277,-0.6318076252937317,-1.5905319452285767,-0.07114653289318085,-0.07067888975143433,-0.9949586391448975,-0.04602570831775665,0.07888811826705933,0.02878737449645996,-0.9555972358923113,-0.0442110333767224,0.02379227210064232,-0.2903672874951301,0.07073786635891992,-0.07138552302206204,0.5925145898898485
1761597250377166336,61.71716618537903,-0.3191874027252197,-0.6184508204460144,-1.6200510263442993,-0.07638122141361237,-0.0685780867934227,-0.994717538356781,-0.03436707705259323,0.0679677352309227,0.037106454372406006,-0.9578939540598171,-0.04374910165450065,0.026967641032629792,-0.2824851092580833,0.0686319532351479,-0.07663645902151946,0.57617901880247
1761597250387212288,61.72721219062805,-0.3128775358200073,-0.617347776889801,-1.6639386415481567,-0.08153796941041946,-0.06656499952077866,-0.9944449067115784,-0.019276849925518036,0.07227179408073425,0.03782564401626587,-0.9601700076379169,-0.04326408240959275,0.030095999708197405,-0.27440103649137737,0.06661425705906039,-0.08181044481511962,0.559455215303749
1761597250397258240,61.737258195877075,-0.27900397777557373,-0.6030098795890808,-1.7215676307678223,-0.0866546705365181,-0.0649016946554184,-0.9941220879554749,-0.002304069697856903,0.0754455178976059,0.042065203189849854,-0.9624327092719713,-0.04288517250575968,0.03316345790685844,-0.2660532487726436,0.06494734415023574,-0.08694726516054013,0.542232034514944
1761597250407304192,61.7473042011261,-0.257670134305954,-0.5861873030662537,-1.757825255393982,-0.09159962087869644,-0.0636744275689125,-0.9937580823898315,0.003922626376152039,0.0791163221001625,0.03549087047576904,-0.9646765275095711,-0.04263664372122261,0.03609830792916988,-0.25744571957082907,0.06371753507570545,-0.09191525066958743,0.524520656147374
1761597250417350400,61.75735020637512,-0.23199032247066498,-0.5624087452888489,-1.8098269701004028,-0.09632401913404465,-0.06277765333652496,-0.9933683276176453,-0.0015916302800178528,0.09913934767246246,0.017141520977020264,-0.9668853874179694,-0.04246471476567234,0.03889190726209678,-0.24862977423981525,0.06281896023757699,-0.09666486016499669,0.5064235566068894
1761597250427396352,61.767396211624146,-0.19976702332496643,-0.5487191081047058,-1.8768407106399536,-0.10085855424404144,-0.06232282891869545,-0.9929468631744385,-0.010255955159664154,0.12151166796684265,-0.010425329208374023,-0.9690740231963069,-0.042426063014680555,0.041552516271787514,-0.2395181393920669,0.06236324410591578,-0.10122779091116169,0.4877715494576693
1761597250437442304,61.77744221687317,-0.1302313506603241,-0.5247634649276733,-1.9398345947265625,-0.10512685030698776,-0.06251507252454758,-0.9924919009208679,-0.014349475502967834,0.13020306825637817,-0.02415543794631958,-0.9712474706762304,-0.04261112729246554,0.044026493011237774,-0.23005268193389003,0.06255586495502241,-0.10552863452411448,0.46845845907732236
1761597250447488256,61.78748822212219,-0.0893867090344429,-0.5138687491416931,-1.9694304466247559,-0.10917207598686218,-0.06342584639787674,-0.9919973015785217,-0.030216962099075317,0.13755305111408234,-0.04645484685897827,-0.9733653173208453,-0.043069180870949395,0.046329276135229386,-0.22036005716953164,0.06346845242684514,-0.10961169159848783,0.44875698535706016
1761597250457534208,61.797534227371216,-0.06845665723085403,-0.5139124393463135,-2.023054838180542,-0.11313439160585403,-0.06476981937885284,-0.9914663434028625,-0.04752540588378906,0.16584403812885284,-0.06119173765182495,-0.9754139929129353,-0.043681179851083426,0.04856738074764372,-0.2104771738551932,0.0648151900245398,-0.11361672830058907,0.4287350159706635
1761597250467580416,61.80758023262024,-0.041514161974191666,-0.5028870105743408,-2.0908188819885254,-0.11695708334445953,-0.06650372594594955,-0.9909077882766724,-0.06677398830652237,0.17212507128715515,-0.05705052614212036,-0.9774212856506863,-0.04441352281733718,0.05072999748724546,-0.20025350146313867,0.06655284522440195,-0.11748667647759896,0.4080811970027558
1761597250477626368,61.81762623786926,-0.0545940101146698,-0.47669458389282227,-2.124451160430908,-0.12052877992391586,-0.06847498565912247,-0.9903453588485718,-0.08213844895362854,0.16036342084407806,-0.04818302392959595,-0.9793671199197265,-0.04518557550863854,0.052778497118118495,-0.1897699986852494,0.06852860764448694,-0.12110818522058639,0.38694860546638443
1761597250487672320,61.827672243118286,-0.06528740376234055,-0.4536752700805664,-2.156538724899292,-0.12377040833234787,-0.07036637514829636,-0.9898128509521484,-0.09435398131608963,0.16928911209106445,-0.03660011291503906,-0.9812377849743441,-0.045840564719889565,0.05470120464757539,-0.1791058710614715,0.07042457332158855,-0.1243985654188137,0.3654738194045055
1761597250497718272,61.83771824836731,-0.056554097682237625,-0.4544545114040375,-2.191979169845581,-0.1268461048603058,-0.0723843052983284,-0.9892777800559998,-0.10273762047290802,0.1730923056602478,-0.03921031951904297,-0.983021587592746,-0.046497770530940986,0.05656017425825647,-0.16824844439934794,0.07244766068195205,-0.12752508369838866,0.34365154345706206
1761597250507763456,61.84776329994202,-0.030856290832161903,-0.4585072100162506,-2.2163188457489014,-0.12986980378627777,-0.07469175010919571,-0.988713800907135,-0.10326923429965973,0.1619720160961151,-0.02767413854598999,-0.9846983937463692,-0.04725177193725011,0.058398371144717444,-0.15724531306765704,0.07476137158046436,-0.1306045716293177,0.3215949909002243
1761597250517809408,61.85780930519104,-0.010245819576084614,-0.48385918140411377,-2.2177345752716064,-0.13297493755817413,-0.0773247554898262,-0.9880984425544739,-0.10800710320472717,0.1502465009689331,-0.008758187294006348,-0.9862492577109796,-0.04813474906386808,0.06028117145918592,-0.14615649204640957,0.07740201564838328,-0.1337728860958364,0.29943446394881096
1761597250527855360,61.86785531044006,-0.03630252182483673,-0.5303035378456116,-2.2290868759155273,-0.13638553023338318,-0.08000005781650543,-0.987420380115509,-0.10423031449317932,0.14059270918369293,-0.007055938243865967,-0.9876617380745147,-0.049023293378984,0.062342066148483304,-0.13503565070491436,0.08008563957685308,-0.13725461866058805,0.277267832215053
1761597250537901312,61.87790131568909,-0.08240263909101486,-0.5915506482124329,-2.29453706741333,-0.14023944735527039,-0.08245479315519333,-0.9866783022880554,-0.09355570375919342,0.14994442462921143,-0.029968976974487305,-0.9889615851876099,-0.049775513399032086,0.06467796543211614,-0.12366923440571782,0.08254851152178723,-0.1411872197734678,0.25464801216980454
1761597250547947520,61.88794732093811,-0.13315579295158386,-0.6682507991790771,-2.3989720344543457,-0.14466166496276855,-0.08465626090765,-0.9858530759811401,-0.08139729499816895,0.1698308289051056,-0.07168781757354736,-0.9901625709456108,-0.05035622259383738,0.06736249108192763,-0.11182360185139102,0.0847577058146886,-0.14569776636442666,0.23110530786210193
1761597250557993472,61.897993326187134,-0.1694461554288864,-0.7205145359039307,-2.522106170654297,-0.14957445859909058,-0.08668770641088486,-0.9849430322647095,-0.07260876893997192,0.18980661034584045,-0.11820638179779053,-0.9912606653150575,-0.050778732258731835,0.07035636521528935,-0.09936708523398864,0.08679664763291334,-0.1507095319078945,0.20637581276564373
1761597250568039424,61.90803933143616,-0.21832585334777832,-0.7474518418312073,-2.624479293823242,-0.15471558272838593,-0.08864971250295639,-0.9839737415313721,-0.09310239553451538,0.204128235578537,-0.15279078483581543,-0.9922411057024588,-0.05106462342865802,0.07352235459665586,-0.0862807088705356,0.08876624062291916,-0.15595859691149594,0.18041493181005325
1761597250578085376,61.91808533668518,-0.31287845969200134,-0.6584985256195068,-2.7006328105926514,-0.15927931666374207,-0.09013178199529648,-0.9831105470657349,-0.14873459935188293,0.19779780507087708,-0.16467082500457764,-0.99518329674015,-0.04797268711174323,0.07837949431674185,-0.034138080895853136,0.09025426558235838,-0.16062000189783152,0.07584857032888909
1761597250588131328,61.928131341934204,-0.4608554244041443,-0.6738585829734802,-2.6284618377685547,-0.163767009973526,-0.09061913192272186,-0.9823281168937683,-0.2030695378780365,0.17080406844615936,-0.16115021705627441,-0.9949457714526165,-0.042564936536772915,0.08381028089253478,0.03531503891538292,0.09074361924720692,-0.16519389237260124,-0.06344173555788064
1761597250598177536,61.93817734718323,-0.5899271368980408,-0.5999492406845093,-2.485278606414795,-0.16792993247509003,-0.08959591388702393,-0.9817189574241638,-0.2826926112174988,0.12995541095733643,-0.13058573007583618,-0.9942385039885387,-0.04084344835684849,0.08644266136498523,0.0484694284954012,0.0897162166423315,-0.16941731546687971,-0.08980043053176814
1761597250608223488,61.94822335243225,-0.7248356938362122,-0.5749940276145935,-2.2787930965423584,-0.171561136841774,-0.08726184815168381,-0.9813012480735779,-0.2998744249343872,0.0665251612663269,-0.11354738473892212,-0.9934492306930716,-0.03848058320240098,0.08870524105761611,0.060903052746737026,0.0873729771749618,-0.17308095004974627,-0.1148710064553234
1761597250618269184,61.958269119262695,-0.8198980689048767,-0.5318614840507507,-2.090756416320801,-0.17530199885368347,-0.08327356725931168,-0.9809865951538086,-0.32558301091194153,0.034018196165561676,-0.0949563980102539,-0.9926132801405092,-0.03533718478904651,0.09087342976050115,0.07219520708463796,0.0833701147977378,-0.17683314444501294,-0.13781440703610942
1761597250628315136,61.96831512451172,-0.858432948589325,-0.575574517250061,-1.9831621646881104,-0.17921586334705353,-0.07853017747402191,-0.9806705117225647,-0.28788620233535767,-0.0021430328488349915,-0.06698262691497803,-0.9917030535438336,-0.03182500686621413,0.09301561985217485,0.08282622032182728,0.0786111180337786,-0.18075369353496454,-0.15952388104034293
1761597250638361088,61.97836112976074,-0.816497266292572,-0.6646908521652222,-1.9228551387786865,-0.18397603929042816,-0.07371655106544495,-0.9801625609397888,-0.23971474170684814,-0.01872117817401886,-0.046830177307128906,-0.9906715617297374,-0.028238650179204745,0.09550544185700724,0.09301092381106689,0.07378348212038846,-0.18554068599353166,-0.18035692274194765
1761597250648407296,61.988407135009766,-0.7564138770103455,-0.7765881419181824,-1.9226821660995483,-0.1898692101240158,-0.069538913667202,-0.9793436527252197,-0.1874348670244217,-0.04000392556190491,-0.04088950157165527,-0.9894728732018064,-0.024879292724491773,0.09853521148363001,0.10302989333983545,0.0695950819104146,-0.1914982390356684,-0.2008174983461152
1761597250658452224,61.99845218658447,-0.784088134765625,-0.8027464747428894,-2.030834197998047,-0.19657935202121735,-0.06584133952856064,-0.9782747626304626,-0.16712914407253265,-0.08471713215112686,-0.026562273502349854,-0.9880883501453772,-0.021635135694209513,0.10195365128821358,0.11322051193664272,0.06588900456254226,-0.19830397830426658,-0.22161881897588925
1761597250668498176,62.008498191833496,-0.87545245885849,-0.5667983293533325,-2.6172282695770264,-0.2038595974445343,-0.06232250854372978,-0.977014422416687,-0.11884854733943939,-0.1507359743118286,-0.01613438129425049,-0.9865389417712563,-0.01836620169233022,0.10561947155289411,0.12348367561019377,0.06236292259236487,-0.2057042906153534,-0.24260303400559813
1761597250678544384,62.01854419708252,-0.9337101578712463,-0.6532877087593079,-2.5374836921691895,-0.21250727772712708,-0.05771284177899361,-0.9754536747932434,-0.21815678477287292,-0.1823079138994217,0.03812152147293091,-0.9848624732265897,-0.014431508415166069,0.10984028941129839,0.13331510728517937,0.057744928244504244,-0.21450323501806717,-0.2628740007711566
1761597250688590336,62.02859020233154,-1.0053423643112183,-0.8630751371383667,-2.127575159072876,-0.220316544175148,-0.052729588001966476,-0.9740021824836731,-0.233174666762352,-0.22523976862430573,0.051593124866485596,-0.9829868578640572,-0.010185134906921314,0.11355695812645421,0.1440064980789381,0.052754052859182395,-0.22245364455769415,-0.2850349485601722
1761597250698636288,62.038636207580566,-1.141093373298645,-0.8935204148292542,-2.0089709758758545,-0.22792387008666992,-0.04698232561349869,-0.97254478931427,-0.18224762380123138,-0.22544808685779572,0.016215503215789795,-0.9809558983765264,-0.0054647194168765505,0.11703735743560717,0.15491219802692163,0.04699962758411142,-0.2302036844100792,-0.30781755083368706
1761597250708682240,62.04868221282959,-1.1762123107910156,-0.8681780695915222,-2.0890913009643555,-0.2357460856437683,-0.04041321203112602,-0.9709740281105042,-0.1606314778327942,-0.17166869342327118,-0.00616830587387085,-0.978795549504071,-0.00025391982443265124,0.12046959878214861,0.16566894469181015,0.040424222540739685,-0.23818456143486658,-0.33049997599960607
1761597250718728192,62.05872821807861,-1.186264157295227,-0.8553083539009094,-2.152879476547241,-0.24352291226387024,-0.03393903374671936,-0.969301164150238,-0.14286014437675476,-0.12345537543296814,-0.015745222568511963,-0.9764148544090859,0.005037618384564282,0.12379032880658453,0.1768177077739255,0.0339455523959815,-0.24614119865851833,-0.35409520818993484
1761597250728774400,62.06877422332764,-1.1829068660736084,-0.8390193581581116,-2.2053515911102295,-0.2512417733669281,-0.02782890573143959,-0.9675242304801941,-0.1021365225315094,-0.09849861264228821,-0.029713928699493408,-0.9738282294661884,0.010258656223962933,0.12701435249263124,0.18820410304104987,0.02783249977326728,-0.25406352848303854,-0.3782620738365837
1761597250738818816,62.078818798065186,-1.172865390777588,-0.8085463643074036,-2.2486276626586914,-0.2588236629962921,-0.02208082750439644,-0.9656721949577332,-0.07664081454277039,-0.07423264533281326,-0.034846603870391846,-0.9710427680401928,0.015397459636926795,0.13010315485055762,0.1997799808799531,0.02208262261644124,-0.2618695159100363,-0.40290450637497516
1761597250748864768,62.08886480331421,-1.1502773761749268,-0.7744742631912231,-2.289191722869873,-0.26623421907424927,-0.016799522563815117,-0.9637619853019714,-0.06065481901168823,-0.04890482500195503,-0.028303444385528564,-0.9680573488617463,0.020396709705380225,0.13305259352417798,0.21153248862288374,0.016800313311072637,-0.2695231080562635,-0.42798391010615294
1761597250758910976,62.09891080856323,-1.0900434255599976,-0.7365534901618958,-2.308901309967041,-0.27338501811027527,-0.012182093225419521,-0.9618275761604309,-0.042456626892089844,-0.027078773826360703,-0.013331174850463867,-0.9648942313564388,0.025135182398901116,0.13584714972852957,0.22336750644564984,0.01218239451442467,-0.27693145955590237,-0.45327661383549084
1761597250768956928,62.108956813812256,-1.0387356281280518,-0.7056902647018433,-2.298191547393799,-0.2802494466304779,-0.008335455320775509,-0.9598910212516785,-0.022881686687469482,0.003147468902170658,-0.0003140568733215332,-0.9615863870131284,0.02953548171055284,0.1384996210824164,0.2351533124750559,0.008335551581979895,-0.2840640887047841,-0.47848827135780075
1761597250779002880,62.11900281906128,-1.0271320343017578,-0.6654459238052368,-2.293109178543091,-0.2868770956993103,-0.004955073818564415,-0.9579545855522156,0.0036587417125701904,0.03445031866431236,0.007026851177215576,-0.9581487337097728,0.03374136453145351,0.14101146127032635,0.2468365501491753,0.004955094141030204,-0.290969003250695,-0.5035455351714554
1761597250789048064,62.129047870635986,-1.0380727052688599,-0.6072119474411011,-2.2860023975372314,-0.29308056831359863,-0.0017325247172266245,-0.9560861587524414,0.03175854682922363,0.03603428229689598,0.023362159729003906,-0.954590306581898,0.03787927767749374,0.14325526266663588,0.2584578950899652,0.0017325255829760136,-0.2974477677591842,-0.5285669397351895
1761597250799094016,62.13909387588501,-1.0938515663146973,-0.5392104983329773,-2.2451651096343994,-0.29873183369636536,0.0017276591388508677,-0.9543355107307434,0.06289198994636536,0.02747766673564911,0.04501849412918091,-0.9509406522163214,0.042105983330002136,0.14511829856400044,0.2699622450683074,-0.0017276599978783495,-0.3033639961598131,-0.5534879787232498
1761597250809139968,62.14913988113403,-1.1329073905944824,-0.4848419725894928,-2.2112419605255127,-0.30384957790374756,0.005649742670357227,-0.9527032971382141,0.09591805934906006,0.0300405602902174,0.07161504030227661,-0.9472222572808308,0.04650994366737555,0.14657826582106306,0.2812857839143802,-0.005649772897336751,-0.30873575728949165,-0.5782075279646547
1761597250819185920,62.15918588638306,-1.1261988878250122,-0.4643087387084961,-2.1764719486236572,-0.3086523115634918,0.009727290831506252,-0.9511252045631409,0.13209283351898193,0.029365727677941322,0.08149629831314087,-0.9434266999825008,0.05096169460243055,0.147784673290621,0.29241853813311786,-0.009727443890521529,-0.31379118264807854,-0.6026655657748881
1761597250829231872,62.16923189163208,-1.0983936786651611,-0.46353980898857117,-2.150237798690796,-0.313472181558609,0.013573207892477512,-0.9495003819465637,0.17791306972503662,0.02976175770163536,0.07967311143875122,-0.9395378799725792,0.05531829011189607,0.14896207575731313,0.3033458328567316,-0.013573624965929579,-0.3188777171319729,-0.6267857243304364
1761597250839278080,62.1792778968811,-1.0449291467666626,-0.46829327940940857,-2.1409621238708496,-0.3183784782886505,0.01696733571588993,-0.9478118419647217,0.2191658616065979,0.03810163587331772,0.08123469352722168,-0.9355377462679769,0.05949470043254981,0.15018146040668312,0.31412579395576,-0.01696814916752649,-0.32406683167954564,-0.6506582221042659
1761597250849324032,62.18932390213013,-0.9808003902435303,-0.47382956743240356,-2.142118215560913,-0.3234018385410309,0.019656632095575333,-0.9460575580596924,0.2503274977207184,0.04035619646310806,0.07972455024719238,-0.9314190019284956,0.0633823264247629,0.1515054881144757,0.3247881511825119,-0.019657897731592225,-0.3293883659289571,-0.674304127058763
1761597250859369984,62.19936990737915,-0.9266144037246704,-0.4499111771583557,-2.137207508087158,-0.3283720910549164,0.021677309647202492,-0.9442996382713318,0.2753325402736664,0.03931206837296486,0.08796119689941406,-0.9271924909173812,0.06697563818131849,0.15285427974440888,0.3353563545113078,-0.021679007613653326,-0.3346612926082183,-0.6977638740448534
1761597250869415936,62.209415912628174,-0.9173757433891296,-0.43380215764045715,-2.112645149230957,-0.33316072821617126,0.023278851062059402,-0.9425826668739319,0.28067055344581604,0.0363372303545475,0.08850246667861938,-0.9228864380022208,0.07036405639617327,0.15413494420170012,0.3457918510515207,-0.023280954407480733,-0.33974962563127387,-0.7209827827124682
1761597250879461888,62.2194619178772,-0.9603780508041382,-0.3865811228752136,-2.064244270324707,-0.3376917839050293,0.02506299316883087,-0.9409230351448059,0.2820429801940918,0.027686648070812225,0.08112078905105591,-0.9185360805941443,0.0738038440872809,0.15521433226613418,0.35602380474430667,-0.02506561775658363,-0.34457627657136075,-0.7439029418669026
1761597250889508096,62.22950792312622,-1.018249273300171,-0.3284376859664917,-1.9934651851654053,-0.3417222201824188,0.0274363961070776,-0.9394004344940186,0.2826401889324188,0.017195558175444603,0.07326579093933105,-0.9141891773741159,0.07742264246025542,0.1559022653181766,0.3660032987945097,-0.027439840167753905,-0.3488857521648926,-0.7664667395405881
1761597250899554048,62.239553928375244,-1.0396440029144287,-0.2885187566280365,-1.9144692420959473,-0.34529784321784973,0.03036367893218994,-0.938001811504364,0.2874212861061096,0.01393258199095726,0.061536967754364014,-0.9098826368684335,0.0811863268978541,0.15623016219704774,0.3756521085517177,-0.03036834627767167,-0.3527258696523205,-0.7884950416530492
1761597250909600000,62.24959993362427,-1.0441874265670776,-0.2532089948654175,-1.8340048789978027,-0.34857040643692017,0.03360588476061821,-0.9366799592971802,0.30737167596817017,0.017907779663801193,0.051120877265930176,-0.9056478812115004,0.08498931576405844,0.1563228693744715,0.3848921918848508,-0.03361221253885656,-0.3562555930673783,-0.8097780716813706
1761597250919645952,62.25964593887329,-1.0381518602371216,-0.2422306388616562,-1.7596296072006226,-0.3516109585762024,0.03702446445822716,-0.9354137778282166,0.3208950161933899,0.02701667696237564,0.03679317235946655,-0.9014801240821497,0.08877908920612647,0.15624143086033995,0.393751849890982,-0.03703292799065022,-0.35954909109986544,-0.8303491859576125
1761597250929690880,62.26969075202942,-1.0411882400512695,-0.23394937813282013,-1.6810272932052612,-0.3546188771724701,0.04063844308257103,-0.9341273903846741,0.3297775685787201,0.022120952606201172,0.025573313236236572,-0.8973701646517062,0.09260338884126597,0.15607985771334917,0.4022318981840422,-0.04064963564744325,-0.3628200182591703,-0.8502260789912881
1761597250939736832,62.27973675727844,-1.03538978099823,-0.2056325078010559,-1.5986043214797974,-0.35746803879737854,0.04448007792234421,-0.932865560054779,0.33894383907318115,0.0032189004123210907,0.03645747900009155,-0.8933461696979355,0.0964441982509771,0.15577464762777649,0.41032361476619095,-0.04449475739776903,-0.3659346087935751,-0.8693741770665344
1761597250949782784,62.289782762527466,-1.0237784385681152,-0.17835696041584015,-1.509403944015503,-0.36007004976272583,0.04848145693540573,-0.9316647052764893,0.34052351117134094,-0.02542542666196823,0.04955410957336426,-0.889447273982375,0.10023865926909545,0.15530570135993976,0.41799027935975125,-0.048500469811009084,-0.3687973930868355,-0.8876776797892905
1761597250959828736,62.29982876777649,-1.0112980604171753,-0.17196084558963776,-1.4160727262496948,-0.3625110387802124,0.052641551941633224,-0.9304916262626648,0.3348468542098999,-0.034559883177280426,0.055033862590789795,-0.8856876164782601,0.10399795152816602,0.1547211199256134,0.4252097017592885,-0.05266589625654793,-0.37150091064420965,-0.9050851592659458
1761597250969874944,62.30987477302551,-1.0104353427886963,-0.1695314347743988,-1.3247268199920654,-0.3649636209011078,0.05699353665113449,-0.9292756915092468,0.3330574929714203,-0.03801161050796509,0.046646296977996826,-0.8820548192881746,0.10777765636905519,0.1540978066394587,0.43199208715344173,-0.05702443638137916,-0.3742320219199974,-0.9216378941211328
1761597250979920896,62.319920778274536,-1.0443711280822754,-0.1622769832611084,-1.2519482374191284,-0.3673684298992157,0.06179197505116463,-0.9280205965042114,0.3412301242351532,-0.057214342057704926,0.050045132637023926,-0.8785387436871142,0.11168701381966645,0.1533483659259449,0.43838342205274816,-0.06183136534075789,-0.37693437924688256,-0.9374778843223729
1761597250989966848,62.32996678352356,-1.0922952890396118,-0.1401820331811905,-1.1833934783935547,-0.36961936950683594,0.06716430932283401,-0.9267526268959045,0.34421348571777344,-0.08893858641386032,0.05736786127090454,-0.8751084723236005,0.11577201975690286,0.1523828089699746,0.44447875315049357,-0.0672149084756698,-0.37949979410027523,-0.9528294276630848
1761597251000012800,62.34001278877258,-1.135162353515625,-0.12420812249183655,-1.123599648475647,-0.3716930150985718,0.07319086045026779,-0.9254660606384277,0.3373607397079468,-0.1146489828824997,0.062337398529052734,-0.8717528448774136,0.12006536338428105,0.15116641924557742,0.45031093146196116,-0.07325636616768849,-0.38190896894548537,-0.9677794543339081
1761597251010058752,62.350058794021606,-1.1505632400512695,-0.12465909868478775,-1.0791839361190796,-0.37374603748321533,0.07966605573892593,-0.9241034388542175,0.3260776102542877,-0.12670889496803284,0.06320255994796753,-0.8684500677219947,0.12451377432194316,0.14981518585347253,0.4559014998723357,-0.07975056636819196,-0.38432962438880863,-0.9823558145584621
1761597251020104960,62.36010479927063,-1.1192591190338135,-0.14380377531051636,-1.0609732866287231,-0.3759381175041199,0.08609819412231445,-0.9226362109184265,0.3134838938713074,-0.13402605056762695,0.06706070899963379,-0.8651545303074183,0.12894791571936146,0.14850695820873244,0.46133040808498854,-0.08620492493722791,-0.3869215324516878,-0.9966595987387101
1761597251030150912,62.37015080451965,-1.0948230028152466,-0.17777670919895172,-1.0259629487991333,-0.37842220067977905,0.09231351315975189,-0.9210183620452881,0.29944270849227905,-0.13609099388122559,0.059720754623413086,-0.8618670648972965,0.13332781081125902,0.14735841301826175,0.46657731460925145,-0.09244513068584252,-0.3898449290895656,-1.01062969232533
1761597251040196864,62.38019680976868,-1.0719558000564575,-0.21125930547714233,-1.0152082443237305,-0.3812231421470642,0.09837163239717484,-0.9192343950271606,0.2834295928478241,-0.12010016292333603,0.03646773099899292,-0.8585812227289464,0.1376927334517732,0.1463676837295702,0.4716517837334038,-0.09853098426008364,-0.3931296383054991,-1.0243067783088
1761597251050242816,62.3902428150177,-1.0469307899475098,-0.2783009707927704,-1.053682565689087,-0.38456493616104126,0.10408972948789597,-0.9172105193138123,0.26820141077041626,-0.09394263476133347,-0.011363089084625244,-0.8551948334095223,0.14205053274040702,0.1456584520860277,0.47670434264271444,-0.10427861546068869,-0.39701291831108587,-1.0380415719839344
1761597251060289024,62.400288820266724,-1.0477420091629028,-0.321665495634079,-1.093695044517517,-0.3885396122932434,0.109446682035923,-0.9149089455604553,0.2615407109260559,-0.0744888111948967,-0.05396312475204468,-0.8516236929420745,0.1464456613863322,0.14525559789084574,0.48186269277476107,-0.1096663716992616,-0.4015959453949542,-1.0521535569612508
1761597251070333952,62.41033387184143,-1.0508249998092651,-0.3347487151622772,-1.1104406118392944,-0.3928396701812744,0.11464310437440872,-0.9124329686164856,0.2354452908039093,-0.05926898121833801,-0.09237349033355713,-0.8479065305410374,0.150886698261923,0.14497141600246002,0.48710473702716695,-0.11489573022501927,-0.4065544193315284,-1.0665935007707312
1761597251080379904,62.420379877090454,-0.9843937754631042,-0.3201276957988739,-1.0913861989974976,-0.3971385955810547,0.11953850090503693,-0.9099403619766235,0.1930522918701172,-0.02345389872789383,-0.11018598079681396,-0.8441676691259242,0.15519782360344095,0.14471850555937293,0.49229181428885505,-0.1198250349889224,-0.41152428992937606,-1.08094073791655
1761597251090425856,62.43042588233948,-0.8621965050697327,-0.32183071970939636,-1.0432406663894653,-0.40139734745025635,0.12363181263208389,-0.9075215458869934,0.14512598514556885,0.027994774281978607,-0.1348673701286316,-0.8405398467496784,0.15911257372088833,0.14464584788789617,0.49724587158162353,-0.12394894989984642,-0.41643270278895944,-1.0946291783677224
1761597251100472064,62.4404718875885,-0.7120432257652283,-0.3186338543891907,-0.9272717833518982,-0.40555495023727417,0.12671267986297607,-0.905245304107666,0.09389421343803406,0.07304011285305023,-0.1768164038658142,-0.837189441961774,0.16247934541710995,0.14483716491865511,0.5017334576722184,-0.12705424090913756,-0.421194113996101,-1.1070143666821906
1761597251110518016,62.450517892837524,-0.6016607284545898,-0.27712079882621765,-0.7522029280662537,-0.4093903601169586,0.12912343442440033,-0.9031758904457092,0.048138558864593506,0.08576607704162598,-0.21836036443710327,-0.8342991917388531,0.16534228371323828,0.14516883564042873,0.5055025361788484,-0.1294849667897714,-0.4255771337174871,-1.1175078270222734
1761597251120563968,62.46056389808655,-0.5219494104385376,-0.20320503413677216,-0.5684338808059692,-0.41242969036102295,0.13140912353992462,-0.9014617800712585,-0.002761930227279663,0.08570818603038788,-0.24163508415222168,-0.8319673956662146,0.16778886045484845,0.14531344198398982,0.5084890846316199,-0.13179029710575815,-0.4290834173242322,-1.125967920201387
1761597251130609920,62.47060990333557,-0.4274851381778717,-0.15100638568401337,-0.37529927492141724,-0.41467928886413574,0.13365957140922546,-0.9000979065895081,-0.05896878242492676,0.08927135169506073,-0.25206273794174194,-0.8302177420699854,0.16985034178707936,0.14526499512749583,0.5106734971005467,-0.13406077084579648,-0.43172017822459147,-1.132346844505519
1761597251140655872,62.480655908584595,-0.3383704423904419,-0.10245802253484726,-0.21962924301624298,-0.4162146747112274,0.13583731651306152,-0.8990625739097595,-0.0841667652130127,0.09118291735649109,-0.2513279914855957,-0.8290450978241128,0.17153002032636913,0.14507292783578607,0.512069784067189,-0.13625856649717885,-0.4335649941182165,-1.1366647697093744
1761597251150702080,62.49070191383362,-0.24565212428569794,-0.06195810064673424,-0.15667319297790527,-0.4172136187553406,0.1376401036977768,-0.8983250856399536,-0.09281137585639954,0.09053981304168701,-0.2503259778022766,-0.82825720227123,0.17279723130382846,0.1448397828051921,0.5129840413502396,-0.1380784498082111,-0.4347930285336256,-1.139603294686181
1761597251160748032,62.50074791908264,-0.17264369130134583,-0.01395781897008419,-0.13212843239307404,-0.4177759885787964,0.1388634443283081,-0.8978753685951233,-0.09183704853057861,0.0720435380935669,-0.2584814429283142,-0.8276743103553729,0.17364015098756433,0.14460777338676475,0.5137052545384979,-0.13931364119935008,-0.4354993472686248,-1.1418181150458855
1761597251170793984,62.510793924331665,-0.12841127812862396,0.0675828829407692,-0.11474908143281937,-0.41770312190055847,0.13964059948921204,-0.8977887630462646,-0.09627395868301392,0.043342798948287964,-0.25614190101623535,-0.827243166661571,0.17407904232643653,0.14422937923246562,0.514357071648945,-0.14009844335378768,-0.43546952106687753,-1.143594180655161
1761597251180839936,62.52083992958069,-0.08543583750724792,0.12325254082679749,-0.11457810550928116,-0.4169967770576477,0.14007629454135895,-0.8980491757392883,-0.11788484454154968,0.030364379286766052,-0.23833388090133667,-0.8269180591615998,0.17417221323538049,0.14366435234092612,0.5150060062349556,-0.1405384623105948,-0.4347117648858236,-1.145119882969944
1761597251190886144,62.53088593482971,-0.06516129523515701,0.17860271036624908,-0.09971704334020615,-0.4157920479774475,0.1402330994606018,-0.898583173751831,-0.1400246024131775,0.012919366359710693,-0.22183918952941895,-0.8266866914730745,0.1739856757478777,0.14295946448225355,0.5156363191499861,-0.14069683834946173,-0.43338106006837546,-1.146406117503787
1761597251200930816,62.54093074798584,-0.03969721868634224,0.22718170285224915,-0.0732894316315651,-0.414091020822525,0.14026255905628204,-0.8993636965751648,-0.16809281706809998,-0.0040473490953445435,-0.2159011960029602,-0.8265525981038795,0.17358459366661105,0.14207934240050002,0.5162293055934088,-0.14072658439642516,-0.43149081474991946,-1.1474512421430112
1761597251210976768,62.55097675323486,-0.0366722010076046,0.23825252056121826,-0.02956361323595047,-0.4120337963104248,0.14036931097507477,-0.900291383266449,-0.1858360767364502,-0.011768251657485962,-0.21862035989761353,-0.8265512912590987,0.17308515954320353,0.14105259225647365,0.516680359182997,-0.14083441411564776,-0.429211621603126,-1.1480928689192809
1761597251221022720,62.56102275848389,-0.023057587444782257,0.2299882024526596,-0.023573365062475204,-0.40996667742729187,0.14046233892440796,-0.9012200832366943,-0.18489721417427063,-0.02783721685409546,-0.21232056617736816,-0.8266248129192071,0.17255622083886396,0.14005109915659433,0.5170119049326608,-0.14092836516172672,-0.4269228096783083,-1.1484409852262547
1761597251231068928,62.57106876373291,-0.0320085734128952,0.233218714594841,-0.01316741667687893,-0.40789923071861267,0.14054206013679504,-0.9021453261375427,-0.17935052514076233,-0.06478217244148254,-0.20225530862808228,-0.8267133795443107,0.1720170948795838,0.13905922509278348,0.5173177475338498,-0.14100888497352326,-0.4246351254785563,-1.148725052412338
1761597251241114880,62.581114768981934,-0.06785471737384796,0.22909215092658997,0.004104780964553356,-0.40579965710639954,0.14091725647449493,-0.9030331969261169,-0.17870348691940308,-0.10191580653190613,-0.18726831674575806,-0.8268180433698851,0.17159265539930618,0.1379831936878596,0.5175795031003818,-0.1413878605583121,-0.4223332505258374,-1.1489777686432114
1761597251251160832,62.59116077423096,-0.10671024024486542,0.21898652613162994,0.007498269435018301,-0.403780996799469,0.14167362451553345,-0.9038193821907043,-0.1792420744895935,-0.12920717895030975,-0.16838520765304565,-0.82691235535306,0.17135706802754086,0.13684684101044114,0.5178085596897172,-0.1421518863239836,-0.42014764920693387,-1.1492750934844544
1761597251261206784,62.60120677947998,-0.12905070185661316,0.21958333253860474,-0.0033101700246334076,-0.40176326036453247,0.14273744821548462,-0.9045509099960327,-0.16731327772140503,-0.14556032419204712,-0.13469469547271729,-0.826965527306991,0.17126511803841515,0.13562009035088626,0.5180768326430851,-0.14322663025581184,-0.41798486803732054,-1.1497514787397127
1761597251271252992,62.611252784729004,-0.1116277351975441,0.19363771378993988,-0.011528152041137218,-0.3999132812023163,0.1437578946352005,-0.9052088260650635,-0.14709901809692383,-0.1576281636953354,-0.10356491804122925,-0.826979348001085,0.17120888019597869,0.13447343585018756,0.5183719775859162,-0.14425771490314687,-0.41600654006908655,-1.1503192521151187
1761597251281298944,62.62129878997803,-0.0991809219121933,0.15598462522029877,-0.02902751788496971,-0.3983490765094757,0.14459484815597534,-0.9057650566101074,-0.1268584430217743,-0.17911024391651154,-0.08489656448364258,-0.8269553074391792,0.1711588739370291,0.1334994469571197,0.5186786790147478,-0.14510350206526487,-0.41433337167387707,-1.1509304342593463
1761597251291344896,62.63134479522705,-0.10678218305110931,0.13291184604167938,-0.06459350138902664,-0.3971317410469055,0.14529511332511902,-0.9061874747276306,-0.11762350797653198,-0.19328399002552032,-0.06654506921768188,-0.8268402128753164,0.17116533809580878,0.13269776120390045,0.5190654946585807,-0.1458112422333692,-0.4130352186695761,-1.1517774791914364
1761597251301390848,62.641390800476074,-0.12314490973949432,0.10823420435190201,-0.08815129101276398,-0.3961528539657593,0.14598152041435242,-0.9065055251121521,-0.10937082767486572,-0.1993262618780136,-0.038471221923828125,-0.8266221021824067,0.17125522694431877,0.13198056842676956,0.51956583422226,-0.14650505179898574,-0.4119998739675361,-1.1529498830329805
1761597251311436800,62.6514368057251,-0.11287342756986618,0.08800888806581497,-0.12272222340106964,-0.39541998505592346,0.1466018408536911,-0.9067254066467285,-0.10036858916282654,-0.1975509524345398,-0.010373592376708984,-0.8263127369145566,0.17140485004112496,0.13136850190123037,0.5201634072427007,-0.14713212140682394,-0.4112320245249925,-1.1543961239586629
1761597251321483008,62.66148281097412,-0.0855880081653595,0.06425242871046066,-0.16295939683914185,-0.3949398398399353,0.1468827873468399,-0.9068892002105713,-0.0913272500038147,-0.1877153068780899,0.008741617202758789,-0.8259020779988282,0.17150053694167985,0.13093118111654947,0.5208939170227346,-0.14741613763608874,-0.41072088381568295,-1.156130748809609
1761597251331528960,62.671528816223145,-0.03992132470011711,0.03449626639485359,-0.1884549856185913,-0.3947659134864807,0.14672084152698517,-0.9069911241531372,-0.07935518026351929,-0.17327113449573517,0.014992833137512207,-0.8254194227458472,0.17150495746109493,0.13073061443439654,0.5217072187519228,-0.14725241116601934,-0.4105185443328113,-1.1580172073839117
1761597251341573888,62.68157386779785,-0.004915935918688774,-0.003986410330981016,-0.22606894373893738,-0.39494413137435913,0.14603473246097565,-0.9070242643356323,-0.06890779733657837,-0.15923358500003815,0.013942599296569824,-0.8248640168617278,0.17139628023188222,0.13080974314299582,0.5226006821193214,-0.14655883137810075,-0.41067034078262343,-1.1600382694730802
1761597251351619840,62.691619873046875,0.036887772381305695,-0.03090570867061615,-0.26980096101760864,-0.3955022394657135,0.14481572806835175,-0.9069765210151672,-0.0683649480342865,-0.14965276420116425,0.022653400897979736,-0.8242097343960915,0.17118571583967052,0.13117619479923623,0.5236092377263838,-0.14532673887247938,-0.41120676041828913,-1.1622833352354083
1761597251361666048,62.7016658782959,0.034967366605997086,-0.030317682772874832,-0.30337196588516235,-0.39619892835617065,0.1432669460773468,-0.9069184064865112,-0.06774455308914185,-0.1459524929523468,0.03045356273651123,-0.8234683551870368,0.17089344647000307,0.13166711641813997,0.5247466259535186,-0.1437616255276025,-0.4118754997295145,-1.1647860905721115
1761597251371712000,62.71171188354492,0.010338484309613705,-0.027666807174682617,-0.3491804897785187,-0.39875084161758423,0.13753598928451538,-0.9066871404647827,-0.06824436783790588,-0.11925595998764038,0.033197760581970215,-0.8223042741460671,0.16941556242248856,0.13399548421439875,0.526459122674595,-0.13797333369914147,-0.4143299168237733,-1.1679877955324844
1761597251381757952,62.721757888793945,0.006720047444105148,-0.02143048122525215,-0.3957298994064331,-0.4019908010959625,0.13025803864002228,-0.9063311815261841,-0.06276139616966248,-0.09638352692127228,0.03494751453399658,-0.8208833735931144,0.16753660045640106,0.1369886529326363,0.528503561898863,-0.13062923013196007,-0.41746573713978563,-1.1717483616950286
1761597251391803904,62.73180389404297,0.019407082349061966,-0.01230968814343214,-0.41967570781707764,-0.40624019503593445,0.120755635201931,-0.9057521820068359,-0.04763248562812805,-0.0791143923997879,0.04210472106933594,-0.8191822102320195,0.16506824534307335,0.14098366862379688,0.5308639947399834,-0.12105105059531134,-0.4216153468995607,-1.1759278122955565
1761597251401850112,62.74184989929199,0.03426911681890488,-0.0011478466913104057,-0.45288240909576416,-0.41119176149368286,0.10971804708242416,-0.9049217104911804,-0.03216761350631714,-0.047111235558986664,0.04447859525680542,-0.8172726319164779,0.16221317239804633,0.14569155167758369,0.5334102201305935,-0.10993938035683663,-0.426502666229183,-1.1803310642443374
1761597251411896064,62.751895904541016,0.058943040668964386,0.01774674840271473,-0.49054989218711853,-0.4115958511829376,0.10741052031517029,-0.9050148129463196,-0.03287738561630249,-0.012943342328071594,0.04762345552444458,-0.8160511165740075,0.1616723136240405,0.14613232101492687,0.5353203914728636,-0.10761813408053852,-0.42683396543992674,-1.1844916464146649
1761597251421942016,62.76194190979004,0.10505887120962143,0.025486692786216736,-0.518490195274353,-0.4119296669960022,0.10466021299362183,-0.9051851630210876,-0.030407369136810303,0.009445004165172577,0.046084821224212646,-0.8147696831416947,0.16094161554587522,0.14664654039174074,0.5373481229460093,-0.10485223025546059,-0.4270685781380378,-1.1888182256388098
1761597251431987968,62.77198791503906,0.18458275496959686,0.045253705233335495,-0.5311129093170166,-0.41213133931159973,0.10121417045593262,-0.905485212802887,-0.02883240580558777,0.020627252757549286,0.04495054483413696,-0.8134937217933661,0.15987932086478138,0.14729563675844556,0.5394167873196936,-0.10138778226707276,-0.4271281718743729,-1.1930459839416616
1761597251442033920,62.782033920288086,0.24636223912239075,0.07576581090688705,-0.5354554653167725,-0.41208162903785706,0.09708068519830704,-0.9059602618217468,-0.04555991291999817,0.050273433327674866,0.0330812931060791,-0.8122715961013253,0.15844386551374767,0.14803850360945697,0.5414747349764827,-0.09723382649586003,-0.42688498983258033,-1.1970281846656692
1761597251452080128,62.79207992553711,0.28647902607917786,0.10037741810083389,-0.5543020367622375,-0.41176047921180725,0.09243276715278625,-0.9065922498703003,-0.06738075613975525,0.09444162249565125,0.014471888542175293,-0.8110764277359694,0.15671110538229574,0.14881367813011373,0.5435541980073266,-0.09256489821572421,-0.4263286246119207,-1.20088940361419
1761597251462126080,62.80212593078613,0.2960647940635681,0.12439379841089249,-0.5739049911499023,-0.4112289845943451,0.08748232573270798,-0.9073244333267212,-0.08155360817909241,0.11956418305635452,0.006521821022033691,-0.8098503383866555,0.15480394125076694,0.14957785985193248,0.5457148591019837,-0.08759429904144882,-0.4255388886504193,-1.204849104376941
1761597251472172032,62.812171936035156,0.3126283586025238,0.17622767388820648,-0.5921420454978943,-0.41033223271369934,0.08233291655778885,-0.9082118272781372,-0.08982032537460327,0.12099044024944305,0.022103488445281982,-0.8085983405637321,0.15272169029019478,0.1502336842778929,0.5479732929542841,-0.08242622068120474,-0.42435173421587297,-1.2089468173147158
1761597251482216960,62.822216749191284,0.32758814096450806,0.22954122722148895,-0.603371798992157,-0.4089069068431854,0.07698729634284973,-0.9093229174613953,-0.10777091979980469,0.13510987162590027,0.033376872539520264,-0.8073502129975877,0.15041117755417485,0.15071507450784383,0.5503155502470074,-0.07706354888752373,-0.42259015908690123,-1.2131210521311107
1761597251492262912,62.83226275444031,0.34550538659095764,0.24799875915050507,-0.632556676864624,-0.40713661909103394,0.07144179940223694,-0.9105689525604248,-0.12042075395584106,0.17173752188682556,0.028397321701049805,-0.8060814937283965,0.14792817992598437,0.1511051842730524,0.5527359444113973,-0.07150271535626848,-0.4204591178922402,-1.2174015322964185
1761597251502308864,62.84230875968933,0.3764702081680298,0.2555871903896332,-0.6800025105476379,-0.4052596986293793,0.06549564749002457,-0.9118524789810181,-0.11431732773780823,0.19071467220783234,0.021593689918518066,-0.8047169971805137,0.14527569315353026,0.151554433777947,0.5552988021175588,-0.06554256456708893,-0.41821694614531757,-1.2219537269298066
1761597251512354816,62.852354764938354,0.3870508372783661,0.27550989389419556,-0.7082850933074951,-0.40324002504348755,0.059202998876571655,-0.9131771326065063,-0.09610384702682495,0.17685046792030334,0.024917244911193848,-0.8032656582383249,0.14246440209670141,0.15203724604040844,0.5579899966012556,-0.05923763768049005,-0.4158291499250304,-1.2267556305591834
1761597251522400768,62.86240077018738,0.37118852138519287,0.30211806297302246,-0.7463536262512207,-0.40098053216934204,0.05283636972308159,-0.9145616292953491,-0.08412688970565796,0.16313651204109192,0.03588426113128662,-0.801712506661209,0.13958505695382484,0.15243098414116735,0.5608367719229655,-0.05286098429042612,-0.4131992667738075,-1.2319273728329287
1761597251532446976,62.8724467754364,0.35902804136276245,0.3167012333869934,-0.7677761316299438,-0.39849549531936646,0.04650162160396576,-0.9159907102584839,-0.08137816190719604,0.15254929661750793,0.04889476299285889,-0.8000630081984283,0.1366835931482812,0.15271624348752555,0.563821337614591,-0.04651839557204373,-0.4103464508363509,-1.2374572168450502
1761597251542492928,62.882492780685425,0.3537030518054962,0.3181007206439972,-0.7988696098327637,-0.39587995409965515,0.04016292467713356,-0.9174235463142395,-0.06711748242378235,0.14283573627471924,0.0614970326423645,-0.7983337759373323,0.1337667533581965,0.15295318115887696,0.5668993230305787,-0.04017373028138925,-0.4073740304355503,-1.2432478242549723
1761597251552538880,62.89253878593445,0.3507343828678131,0.31633296608924866,-0.827518105506897,-0.39324814081192017,0.033746037632226944,-0.9188128709793091,-0.046876370906829834,0.13698455691337585,0.07570374011993408,-0.7964938502255973,0.13084434857453442,0.15321004349313552,0.5700912197447864,-0.03375244506264442,-0.40440546142273054,-1.2493580962375956
1761597251562584832,62.90258479118347,0.3458690643310547,0.31481707096099854,-0.847608745098114,-0.39057374000549316,0.02729341760277748,-0.9201669692993164,-0.029470205307006836,0.12436367571353912,0.0907907485961914,-0.7945635474516684,0.12792081640651115,0.15346917336317742,0.573369277292187,-0.0272968070715133,-0.4014128863451248,-1.2557260409238702
1761597251572630784,62.912630796432495,0.3283419609069824,0.30113086104393005,-0.8606796264648438,-0.38791078329086304,0.020898422226309776,-0.921459972858429,-0.015394270420074463,0.11501161754131317,0.09942322969436646,-0.7925537247153956,0.12504719915577658,0.15373098242759523,0.5767049116484511,-0.02089994314439053,-0.39845575053781174,-1.2623112249003077
1761597251582676992,62.92267680168152,0.30752402544021606,0.27454426884651184,-0.8891429901123047,-0.38538143038749695,0.014621776528656483,-0.9226415157318115,-0.00014713406562805176,0.11396404355764389,0.10274100303649902,-0.7904393731360466,0.12229051785709448,0.1540268708357543,0.5801088557334109,-0.014622298029352157,-0.3956658019093676,-1.2691744441590982
1761597251592722944,62.93272280693054,0.28487926721572876,0.2454320788383484,-0.9235038161277771,-0.383056640625,0.008427306078374386,-0.9236864447593689,0.0224151611328125,0.10953839123249054,0.1076921820640564,-0.7881799772697795,0.11966753868841591,0.15439063981728066,0.5836228483277235,-0.008427405669806012,-0.3931177974426464,-1.276424886439373
1761597251602768896,62.942768812179565,0.24482637643814087,0.21507896482944489,-0.9533805251121521,-0.38094520568847656,0.002424098551273346,-0.9245944619178772,0.04041481018066406,0.09759725630283356,0.1079593300819397,-0.7857632791460663,0.11722902618266505,0.15479060120176216,0.587259265725464,-0.0024241008169909434,-0.3908195746552659,-1.2841170197186194
1761597251612813824,62.95281386375427,0.18609420955181122,0.17437270283699036,-0.9781451225280762,-0.3791085183620453,-0.0032137110829353333,-0.9253466725349426,0.04938134551048279,0.09517844021320343,0.11287713050842285,-0.7831847032050522,0.1150653619930139,0.15519871318598474,0.5910119035409949,0.0032137165828233748,-0.3888348185804003,-1.2922781837978483
1761597251622860032,62.962859869003296,0.09811080992221832,0.13822908699512482,-0.996465802192688,-0.37760019302368164,-0.008242771960794926,-0.9259320497512817,0.05881357192993164,0.09154050052165985,0.12000858783721924,-0.7804607591661971,0.11328669322860746,0.15556382733380925,0.5948503972818076,0.00824286512615742,-0.3872171073853302,-1.300883600041223
1761597251632905984,62.97290587425232,-0.001465511042624712,0.0955694392323494,-1.037917971611023,-0.3763887584209442,-0.012438110075891018,-0.9263783097267151,0.06710836291313171,0.09811621904373169,0.11989027261734009,-0.7775375297480487,0.11198751652918437,0.15578716157319314,0.5988526351777802,0.012438431272453495,-0.38592675289613415,-1.3101670976176774
1761597251642951936,62.98295187950134,-0.0873364731669426,0.04534648358821869,-1.064025640487671,-0.3755764067173004,-0.015928169712424278,-0.9266545176506042,0.07441368699073792,0.09692181646823883,0.11780142784118652,-0.7744001888985229,0.11114853625653859,0.1559446362252828,0.6030187050274962,0.01592884382996936,-0.3850700501410169,-1.3201187970384471
1761597251652997888,62.992997884750366,-0.17163458466529846,-0.013629218563437462,-1.0834805965423584,-0.3752393126487732,-0.01867765747010708,-0.9267397522926331,0.07966133952140808,0.09339994937181473,0.10491669178009033,-0.7710804004265842,0.11079766103355215,0.1560576591290541,0.6072930629869469,0.018678744093904635,-0.3847255649666784,-1.3306141981264394
1761597251663044096,63.00304388999939,-0.24188371002674103,-0.06221406161785126,-1.0769619941711426,-0.37536394596099854,-0.02076169103384018,-0.9266449213027954,0.07572710514068604,0.09331724047660828,0.09519350528717041,-0.7676263901371444,0.11088746855728968,0.15614576120976262,0.6116143785149346,0.02076318283625304,-0.384876723840863,-1.3414791303181828
1761597251673090048,63.01308989524841,-0.338100403547287,-0.10325989872217178,-1.0480012893676758,-0.3758978545665741,-0.022005293518304825,-0.9263997673988342,0.07142400741577148,0.09259246289730072,0.08492332696914673,-0.7641214464546735,0.11144952463216325,0.15613813375466457,0.6158881017711368,0.02200707002241426,-0.38546376582617364,-1.3524923485293308
1761597251683136000,63.02313590049744,-0.40926697850227356,-0.15466023981571198,-1.0070788860321045,-0.37687233090400696,-0.02232494205236435,-0.9259961247444153,0.06420448422431946,0.08888377994298935,0.07254153490066528,-0.7606182555425728,0.11251201100490363,0.15602235447797536,0.6200467922985773,0.02232679665140459,-0.386518746737828,-1.3634974830111009
1761597251693181952,63.03318190574646,-0.4625922441482544,-0.18989868462085724,-0.9243631362915039,-0.3782618045806885,-0.021854093298316002,-0.9254406690597534,0.06637215614318848,0.06895797699689865,0.06145751476287842,-0.7572103412364192,0.11398959509225272,0.15583979627372402,0.6239814781535821,0.021855832438337806,-0.38801547516876367,-1.3741783208140792
1761597251703227904,63.04322791099548,-0.5109456181526184,-0.2259664088487625,-0.8043480515480042,-0.37997716665267944,-0.020557167008519173,-0.9247674345970154,0.07115453481674194,0.044742338359355927,0.05669492483139038,-0.754053439831799,0.11582896842934567,0.15556330077548194,0.6275247139479093,0.02055861566264875,-0.38985843283411586,-1.3840813525309976
1761597251713274112,63.05327391624451,-0.5104691386222839,-0.2886285185813904,-0.6664813160896301,-0.38217392563819885,-0.018513696268200874,-0.9239049553871155,0.07574692368507385,0.03548146411776543,0.05108696222305298,-0.7512159980098264,0.11803191933731767,0.15529324590492272,0.6305767761938937,0.01851475435038209,-0.39221854144910273,-1.3929471350624016
1761597251723320064,63.06331992149353,-0.48888713121414185,-0.36837369203567505,-0.5239987373352051,-0.38513293862342834,-0.01609032414853573,-0.9227208495140076,0.09430041909217834,0.02793114259839058,0.03073781728744507,-0.7487802908577286,0.1205275764623737,0.15528260412840725,0.6329996595726277,0.016091017956294626,-0.3954058976939984,-1.4003816713343253
1761597251733366016,63.073365926742554,-0.4491225481033325,-0.43775156140327454,-0.4442483186721802,-0.3888206481933594,-0.013511045835912228,-0.9212144017219543,0.11358261108398438,0.021125178784132004,0.020823776721954346,-0.7466441898027157,0.12324703102709104,0.1555730551224875,0.6349248733114035,0.013511456478606871,-0.39938969564174237,-1.4066845880297039
1761597251743411200,63.08341121673584,-0.41409051418304443,-0.47998103499412537,-0.38989853858947754,-0.39301156997680664,-0.011100850999355316,-0.919466495513916,0.12129834294319153,-0.008491425774991512,0.014589846134185791,-0.7446900160788439,0.12602294965239613,0.1561568543711618,0.6365295856716195,0.011101078822988138,-0.4039307595386132,-1.412226284493608
1761597251753456384,63.09345626831055,-0.39842915534973145,-0.5097739100456238,-0.335917592048645,-0.39754948019981384,-0.00872240960597992,-0.9175392985343933,0.10967716574668884,-0.047811415046453476,0.00019615888595581055,-0.7428886060000627,0.1288670391754841,0.15691921690659258,0.6378763649200585,0.008722519752644474,-0.40886113654681494,-1.4171729157948092
1761597251763502336,63.10350227355957,-0.39922547340393066,-0.5279483795166016,-0.2714291512966156,-0.40231117606163025,-0.006206091959029436,-0.9154819846153259,0.09512126445770264,-0.08543819934129715,-0.009322762489318848,-0.7412528454668926,0.13180249604813252,0.15775652866587145,0.638972105044347,0.006206131780833342,-0.41404840833011053,-1.4215545846113475
1761597251773548288,63.113548278808594,-0.41612476110458374,-0.5199001431465149,-0.2209913581609726,-0.40711653232574463,-0.0034131451975554228,-0.9133698344230652,0.08601060509681702,-0.1211138367652893,-0.02039170265197754,-0.7397797325658586,0.1348246661934716,0.1585477467295155,0.639852222384598,0.0034131518251013654,-0.4192975086359469,-1.4254615051195303
1761597251783594496,63.12359428405762,-0.43600526452064514,-0.5025306940078735,-0.18904727697372437,-0.4117918014526367,-0.00025502537027932703,-0.9112778902053833,0.0752287209033966,-0.1372113972902298,-0.018531620502471924,-0.7384306830352529,0.13791951653857293,0.1591830791155751,0.6405926814212671,0.0002550253749037863,-0.4244194650391658,-1.4290840195097843
1761597251793640448,63.13364028930664,-0.43109309673309326,-0.4907858669757843,-0.1588916778564453,-0.4163266122341156,0.0030649162363260984,-0.9092099666595459,0.0634060800075531,-0.14364412426948547,-0.0200960636138916,-0.737175477455951,0.1410117005160953,0.1597207804667899,0.6412309610993961,-0.0030649209756354076,-0.42940355751981046,-1.432477923443476
1761597251803686400,63.143686294555664,-0.4243188500404358,-0.4620774984359741,-0.14383549988269806,-0.42069047689437866,0.0064505161717534065,-0.9071812629699707,0.05763813853263855,-0.14719757437705994,-0.02317756414413452,-0.736014459469722,0.1440532774284978,0.1601811811234495,0.6417734988355819,-0.006450560862593022,-0.4342159499730505,-1.435631457814345
1761597251813732352,63.15373229980469,-0.36388149857521057,-0.44494518637657166,-0.13608677685260773,-0.4248058497905731,0.00951914768666029,-0.9052344560623169,0.05297967791557312,-0.14996105432510376,-0.029213786125183105,-0.7349163800069126,0.14687813109109318,0.16065364218277903,0.642273460973288,-0.009519291009356163,-0.43876865720313407,-1.4385822697749397
1761597251823778304,63.16377830505371,-0.3227370083332062,-0.42404285073280334,-0.12419788539409637,-0.4287434220314026,0.012142562307417393,-0.9033446907997131,0.04944044351577759,-0.15261498093605042,-0.039526402950286865,-0.7338969148317636,0.14945598170272398,0.16121587138797772,0.6427034860214147,-0.012142861070235331,-0.44313640034662233,-1.4412343621987376
1761597251833824512,63.173824310302734,-0.3023987412452698,-0.39599841833114624,-0.12670719623565674,-0.4324750602245331,0.014453353360295296,-0.9015300273895264,0.04421517252922058,-0.15376609563827515,-0.04640698432922363,-0.7329273905879692,0.1518354163959469,0.1618053885169941,0.6431037926072997,-0.014453856300159044,-0.4472861361980794,-1.4437142711751758
1761597251843870208,63.18387007713318,-0.29936912655830383,-0.35732609033584595,-0.1445344090461731,-0.43589404225349426,0.01663202978670597,-0.8998442888259888,0.03564074635505676,-0.16752618551254272,-0.05044257640838623,-0.7319535361242566,0.15406353460739808,0.16230304623406475,0.6435574447320722,-0.01663279737393601,-0.45109842805039446,-1.4462610072604243
1761597251853916160,63.1939160823822,-0.3116361200809479,-0.32343316078186035,-0.16014309227466583,-0.4389630854129791,0.01875581592321396,-0.8983093500137329,0.027357250452041626,-0.17698946595191956,-0.04541623592376709,-0.7309452460610278,0.1561645541596239,0.16265906294877536,0.6441069362645362,-0.01875691537874939,-0.4545302539131117,-1.4489962523473952
1761597251863962112,63.203962087631226,-0.306700199842453,-0.30567467212677,-0.1883840560913086,-0.4418255090713501,0.02083722874522209,-0.8968589901924133,0.022956490516662598,-0.1729826182126999,-0.04090040922164917,-0.7298838087383206,0.15819550607599922,0.16292540541357106,0.6447473560744327,-0.02083873642556115,-0.45773949949442233,-1.4519408879585547
1761597251874008064,63.21400809288025,-0.2793702185153961,-0.3136906623840332,-0.20439428091049194,-0.4446468651294708,0.022681239992380142,-0.8954187631607056,0.025198012590408325,-0.16736507415771484,-0.037183165550231934,-0.7287656428188809,0.16013776343467112,0.1632376410752619,0.6454533371507795,-0.022683184991491016,-0.4609077239251542,-1.4550163378023064
1761597251884053248,63.224053144454956,-0.24730466306209564,-0.34013453125953674,-0.23136544227600098,-0.44761353731155396,0.024140112102031708,-0.8939012289047241,0.034176647663116455,-0.1580359786748886,-0.03538954257965088,-0.7275880984330582,0.16199844863408064,0.16372508111987505,0.6461935226648833,-0.02414245775015801,-0.4642407305868667,-1.4581445757653637
1761597251894099200,63.23409914970398,-0.20078685879707336,-0.3897343873977661,-0.24954675137996674,-0.45092856884002686,0.025107474997639656,-0.8922068476676941,0.038132548332214355,-0.140784353017807,-0.04053241014480591,-0.7263298036267856,0.16381188899413127,0.16450606475176718,0.6469531694265079,-0.025110113013183798,-0.46796471733878325,-1.461308737636532
1761597251904145152,63.244145154953,-0.14357763528823853,-0.4337460696697235,-0.25911763310432434,-0.45469769835472107,0.02555251121520996,-0.8902791738510132,0.05281174182891846,-0.13331007957458496,-0.06193023920059204,-0.7250210889095566,0.1655960851846446,0.16564520925657705,0.6476758294112482,-0.025555292900740715,-0.47219953228417627,-1.464372949032781
1761597251914191360,63.254191160202026,-0.08302319049835205,-0.48685699701309204,-0.277035117149353,-0.4588531255722046,0.025380702689290047,-0.8881495594978333,0.06331479549407959,-0.1256309449672699,-0.08028000593185425,-0.7236717898686083,0.16729101228293575,0.16714945514733062,0.6483624803803002,-0.025383427655468537,-0.4768704076540432,-1.4672987474197798
1761597251924237312,63.26423716545105,-0.04558633267879486,-0.5400480628013611,-0.26429054141044617,-0.46348837018013,0.02473454363644123,-0.8857576847076416,0.0630519688129425,-0.11466984450817108,-0.0847775936126709,-0.722305872703542,0.16897862065042063,0.16901884508683956,0.6489630077777818,-0.024737066740899625,-0.48208799368059174,-1.470008503790837
