time,seconds_elapsed,rotationRateX,rotationRateY,rotationRateZ,gravityX,gravityY,gravityZ,accelerationX,accelerationY,accelerationZ,quaternionW,quaternionX,quaternionY,quaternionZ,pitch,roll,yaw
1761597263507122432,6.738122463226318,-0.15939249098300934,0.04777495563030243,-0.6244379878044128,-0.5426433682441711,0.5966072678565979,-0.5912681221961975,0.17240411043167114,0.3372306227684021,-0.11284875869750977,0.20863752832672794,0.2175165372486452,-0.39629850204407624,0.8672395987012426,-0.6392669221994618,-0.7425421330802767,2.4131046343158866
1761597263517167360,6.748167276382446,-0.0486350879073143,0.16623422503471375,-0.6772713661193848,-0.5458758473396301,0.5937032699584961,-0.5912157893180847,0.2631457448005676,0.3358316421508789,-0.14254885911941528,0.21207289007334854,0.2180932589443038,-0.39601444817565595,0.8663908450195622,-0.6356531859884078,-0.745545697404619,2.4055850183229097
1761597263527213312,6.75821328163147,0.06000060960650444,0.20139910280704498,-0.7032753825187683,-0.5488636493682861,0.5898416042327881,-0.5923137068748474,0.2180073857307434,0.22517603635787964,-0.1736775040626526,0.21586091132360802,0.2184663636360612,-0.39511467354330465,0.8657718380218036,-0.6308626921221793,-0.7473418266558993,2.398383494554861
1761597263537259264,6.768259286880493,0.07290469110012054,0.135775625705719,-0.6824313402175903,-0.5519506931304932,0.5855655670166016,-0.5936863422393799,0.1293126940727234,0.10835838317871094,-0.16002154350280762,0.21950332342372614,0.21901609234178954,-0.39394007658832453,0.8652522958429222,-0.6255776042793068,-0.7489841678131675,2.3918347366897077
1761597263547305472,6.778305292129517,-0.07926706969738007,0.13125203549861908,-0.6586624383926392,-0.5551058650016785,0.5818209648132324,-0.5944256782531738,0.07645291090011597,0.06344270706176758,-0.17975950241088867,0.22303734444676698,0.2196123301497844,-0.3931381281949582,0.8645618575536318,-0.620965831578638,-0.7512064148709827,2.3849398231952024
1761597263557351424,6.78835129737854,-0.3088877499103546,0.19499611854553223,-0.6648644208908081,-0.5579966306686401,0.579273521900177,-0.5942071080207825,0.06924235820770264,-0.009922325611114502,-0.1574561595916748,0.22679168214024356,0.21983817772972047,-0.3931508942417741,0.8635214196025872,-0.6178371383493891,-0.7539813851979758,2.376545114804236
1761597263567397376,6.7983973026275635,-0.48508986830711365,0.2445327341556549,-0.6549620032310486,-0.5605096220970154,0.5779837965965271,-0.5930966734886169,0.049599647521972656,-0.07017135620117188,-0.08483600616455078,0.23091248473131268,0.21954435174952083,-0.3940202426726362,0.862106558806051,-0.6162558444942667,-0.7571577220047084,2.3663350767275992
1761597263577443328,6.808443307876587,-0.5124687552452087,0.21979914605617523,-0.6327584385871887,-0.5628376007080078,0.5773897171020508,-0.5914683938026428,0.019670546054840088,-0.06629663705825806,-0.030388295650482178,0.23507729847978737,0.2190396476497608,-0.39533206077068866,0.8605072945671659,-0.6155280595957126,-0.7605997955355688,2.3554532263038643
1761597263587488512,6.818488359451294,-0.43172553181648254,0.16834218800067902,-0.5804091691970825,-0.565218985080719,0.5767932534217834,-0.5897770524024963,0.01384270191192627,-0.016322731971740723,-0.009969651699066162,0.23901343639611852,0.21866105324779272,-0.3966091652995449,0.8589301352218646,-0.6147976893061757,-0.764138910012445,2.345036241647384
1761597263597534464,6.828534364700317,-0.32351598143577576,0.11559188365936279,-0.5820646286010742,-0.5677142143249512,0.5757449269294739,-0.5884032249450684,0.03466367721557617,0.03471344709396362,0.006204128265380859,0.2426471303805958,0.21853264305918726,-0.3975448225465192,0.8575103174025319,-0.6135149491953453,-0.7675048467190182,2.3356647202124416
1761597263607580416,6.838580369949341,-0.21104483306407928,0.07155225425958633,-0.5876935720443726,-0.5705754160881042,0.5739649534225464,-0.5873737335205078,0.04114121198654175,0.08417713642120361,0.014467239379882812,0.24604114022424392,0.21880904737903623,-0.39803986089968396,0.8562421330792257,-0.6113395973550448,-0.7708922171410307,2.3272845931191064
1761597263617626368,6.848626375198364,-0.13101604580879211,0.054239045828580856,-0.5411518812179565,-0.5734585523605347,0.5717232823371887,-0.5867518782615662,0.03280913829803467,0.08965367078781128,0.0029659271240234375,0.24914282299569682,0.2192906270589204,-0.3981653799575053,0.8551630459652857,-0.6086047225919266,-0.7739409786562026,2.3200240637092873
1761597263627672320,6.858672380447388,-0.08022490888834,0.012552185915410519,-0.48973503708839417,-0.576198935508728,0.5693689584732056,-0.5863562822341919,0.014538228511810303,0.06077319383621216,-0.02407151460647583,0.2519092408280507,0.21986284290912222,-0.39809820046958616,0.8542363837438539,-0.6057380519846477,-0.7766612561260039,2.3137637577800643
1761597263637718528,6.868718385696411,-0.07642723619937897,-0.01755644753575325,-0.4593598246574402,-0.5789134502410889,0.5670665502548218,-0.5859136581420898,-0.018498659133911133,0.04198795557022095,-0.041832923889160156,0.25439697620360746,0.22054598623475896,-0.3979983040315501,0.8533692643934997,-0.6029400722634849,-0.7793886110844649,2.308115024441533
1761597263647764480,6.878764390945435,-0.10300222784280777,-0.02987826243042946,-0.4547822177410126,-0.5816323161125183,0.5649645924568176,-0.5852512121200562,-0.031435370445251465,0.024985909461975098,-0.05259668827056885,0.2567528390952741,0.22126920614042184,-0.39801298295319404,0.8524691962693812,-0.6003903760302934,-0.78229682152877,2.30255939418851
1761597263657810432,6.888810396194458,-0.13423125445842743,-0.017995502799749374,-0.45076560974121094,-0.5843377113342285,0.5630295276641846,-0.584420382976532,-0.028623104095458984,0.00948023796081543,-0.04665255546569824,0.25914189865564446,0.221948805485072,-0.39815641011691943,0.85150201261803,-0.5980469785285623,-0.7853274247609169,2.296757581054891
1761597263667855616,6.898855447769165,-0.15677623450756073,-0.05648031085729599,-0.4483993351459503,-0.5870832204818726,0.5612456798553467,-0.5833837389945984,-0.03039419651031494,-0.00532221794128418,-0.025518178939819336,0.26148211728224724,0.22265467109922057,-0.3984131234079003,0.8504816391877406,-0.5958900946296628,-0.788558833499429,2.2908750127743587
1761597263677901568,6.9089014530181885,-0.14292646944522858,-0.08317238092422485,-0.44350042939186096,-0.5900158882141113,0.559496283531189,-0.5821042060852051,-0.03394657373428345,-0.01446753740310669,-0.010150492191314697,0.26373002631455567,0.2235060343861365,-0.3987391976225123,0.849410830469558,-0.5937779306744023,-0.7921479502407305,2.285013545689222
1761597263687947520,6.918947458267212,-0.11280528455972672,-0.10752088576555252,-0.4092482626438141,-0.592991054058075,0.5576909780502319,-0.5808117389678955,-0.020152807235717773,-0.02241271734237671,-0.013487517833709717,0.26590964513964216,0.22442181573549283,-0.399035064340393,0.8483500547003464,-0.5916014110772073,-0.7957737519692534,2.2793235361530537
1761597263697993472,6.928993463516235,-0.1321619302034378,-0.10765271633863449,-0.38766705989837646,-0.5958248376846313,0.5560554265975952,-0.5794784426689148,-0.016250967979431152,-0.024469733238220215,-0.019886791706085205,0.2679079977645076,0.22531949439971222,-0.39936437066823527,0.8473279748706177,-0.5896322629940347,-0.7993054978852818,2.2739916173325954
1761597263708039424,6.939039468765259,-0.1313898116350174,-0.127163365483284,-0.4177020192146301,-0.598745584487915,0.5544149875640869,-0.5780379176139832,-0.02980971336364746,-0.001573801040649414,-0.03415989875793457,0.269891736922871,0.22627466745260338,-0.3997259085012595,0.8462727513777744,-0.5876598347042267,-0.8029931810198839,2.2686168875484825
1761597263718085632,6.949085474014282,-0.15494495630264282,-0.12004368007183075,-0.41202256083488464,-0.6018129587173462,0.5526914000511169,-0.5765009522438049,-0.05323159694671631,0.005749762058258057,-0.05354964733123779,0.2719313095374168,0.22729903682645913,-0.4001058076707939,0.8451650165773502,-0.5855902847922263,-0.8068764012026701,2.2630641793711113
1761597263728131584,6.959131479263306,-0.21492715179920197,-0.0787786990404129,-0.38127368688583374,-0.6045872569084167,0.5513427257537842,-0.5748872756958008,-0.06309151649475098,-0.03269648551940918,-0.07409948110580444,0.27401986655578875,0.2280799549376497,-0.4006693050630465,0.8440122242665158,-0.5839728035822364,-0.8105735100872119,2.2572344829721485
1761597263738176256,6.969176292419434,-0.2604067623615265,-0.022704504430294037,-0.3606845438480377,-0.6069297790527344,0.5504814386367798,-0.5732420086860657,-0.07648086547851562,-0.06577074527740479,-0.07331866025924683,0.2761682338238752,0.22851501539589236,-0.4014472387442755,0.8428238749975278,-0.5829408304881086,-0.8139352139785176,2.251098613157198
1761597263748222208,6.979222059249878,-0.23592281341552734,-0.026966793462634087,-0.3715212047100067,-0.6090611815452576,0.5497283935546875,-0.5717019438743591,-0.08763986825942993,-0.072174072265625,-0.059523582458496094,0.2783117682047175,0.22881391350646627,-0.4022352724336715,0.84166114173492,-0.5820390524651069,-0.8170275069665955,2.245021831809453
1761597263758268160,6.989268064498901,-0.12375367432832718,-0.06522150337696075,-0.4009973406791687,-0.6114606261253357,0.5484083294868469,-0.5704070329666138,-0.08223438262939453,-0.0576246976852417,-0.033200085163116455,0.28038839617441363,0.22937893682366364,-0.4027179807621917,0.8405866672846493,-0.5804596347430728,-0.8201203972576437,2.239463727165146
1761597263768314112,6.999314069747925,0.005292526446282864,-0.048855118453502655,-0.4333221912384033,-0.6140606999397278,0.5461931228637695,-0.569739043712616,-0.05847042798995972,-0.05232715606689453,-0.013009428977966309,0.28230748933990707,0.23026765202118185,-0.40262549974246004,0.8397452456865204,-0.5778128198797692,-0.8228208753141553,2.2350458170042464
1761597263778360064,7.009360074996948,0.10686308890581131,-0.060276344418525696,-0.48369213938713074,-0.6168641448020935,0.5430213212966919,-0.5697424411773682,-0.037325918674468994,-0.053137898445129395,0.007456064224243164,0.28423700647687644,0.2314143279515362,-0.4019654015240224,0.8390950491814476,-0.5740309605897038,-0.825088591268052,2.231430254390022
1761597263788406016,7.019406080245972,0.17173069715499878,-0.07579772174358368,-0.5257329344749451,-0.6200428009033203,0.5390645265579224,-0.5700494050979614,-0.05419731140136719,-0.04416096210479736,0.005947232246398926,0.2862514110566651,0.2328581890117485,-0.4009393499259262,0.838501494192986,-0.5693260387967791,-0.8273814730578257,2.228107328893899
1761597263798452224,7.029452085494995,0.22967629134655,-0.06779491901397705,-0.5059882402420044,-0.6232394576072693,0.5346911549568176,-0.5706819891929626,-0.06606101989746094,-0.0606006383895874,-0.0045743584632873535,0.28821815514697685,0.2344058990726789,-0.3996409490867845,0.8380162660171064,-0.564142234573609,-0.8293906594333806,2.225298438200137
1761597263808498176,7.0394980907440186,0.29716554284095764,-0.07359817624092102,-0.5259265303611755,-0.626364529132843,0.529981791973114,-0.5716527700424194,-0.08057522773742676,-0.08405894041061401,-0.017077088356018066,0.2901410006051891,0.23599355761749333,-0.39809628234255834,0.8376423645262872,-0.5585791133208767,-0.8310350178034932,2.2229781597722473
1761597263818542848,7.0495429039001465,0.37285178899765015,-0.12921537458896637,-0.5595952868461609,-0.6298266649246216,0.5246058702468872,-0.5728063583374023,-0.09263122081756592,-0.06731522083282471,-0.029854774475097656,0.29206024973083894,0.23788664578425292,-0.3962407853731352,0.8373196023294698,-0.5522521176878753,-0.8327755679595789,2.221040789600929
1761597263828589056,7.05958890914917,0.4489922821521759,-0.14242586493492126,-0.5571896433830261,-0.6335565447807312,0.5187134742736816,-0.5740578174591064,-0.0856359601020813,-0.05898141860961914,-0.036110639572143555,0.2938592231119364,0.24007913740658945,-0.3941232193678914,0.8370636502289047,-0.5453454972454296,-0.8346280025132315,2.219656981668818
1761597263838635008,7.069634914398193,0.5489790439605713,-0.1738612949848175,-0.5817548632621765,-0.6373726725578308,0.5122088193893433,-0.5756720304489136,-0.06279218196868896,-0.06154048442840576,-0.024089932441711426,0.2955618517422254,0.24247261259201694,-0.39162613004487234,0.8369463965202373,-0.5377546579738763,-0.8362186390724481,2.2190036116133656
1761597263848680960,7.079680919647217,0.683517336845398,-0.20271044969558716,-0.601933479309082,-0.6415244340896606,0.5048230886459351,-0.5775812864303589,-0.06736838817596436,-0.04222238063812256,0.0015772581100463867,0.29717874104285774,0.2452472110296678,-0.3886684497915378,0.8369441973404932,-0.5291770148151547,-0.83780103103962,2.2190987654750933
1761597263858726912,7.08972692489624,0.7965275049209595,-0.17769432067871094,-0.5862452983856201,-0.6456201672554016,0.49667492508888245,-0.580076277256012,-0.07480823993682861,-0.025483548641204834,0.004896342754364014,0.29860474401682036,0.2482107858090305,-0.3851665274390666,0.8371817451195595,-0.5197635578093732,-0.8388220825177565,2.2203627519475453
1761597263868772864,7.099772930145264,0.8616219162940979,-0.19940687716007233,-0.646072268486023,-0.6497228145599365,0.4878500699996948,-0.5829773545265198,-0.07906746864318848,0.0030251741409301758,0.009872496128082275,0.3000173386611813,0.25130320952352486,-0.38125845823725546,0.8375430079475742,-0.5096251583444262,-0.8394910465127605,2.222206389589386
1761597263878819072,7.109818935394287,0.9256829023361206,-0.2204519808292389,-0.718625545501709,-0.6542892456054688,0.4780770540237427,-0.5859590172767639,-0.09732818603515625,0.053203463554382324,-0.00997304916381836,0.3015966229950867,0.25474814997558026,-0.3769932156049465,0.8378657475552086,-0.498464039362153,-0.8404365469371954,2.224068590368543
1761597263888865024,7.1198649406433105,0.8442525267601013,-0.19810165464878082,-0.7238733172416687,-0.6589866280555725,0.4680270254611969,-0.5888015031814575,-0.10206061601638794,0.0288754403591156,-0.037174999713897705,0.3032800732699043,0.2582811782496284,-0.37267958660995365,0.8381061142910197,-0.4870568448330175,-0.8415865945060466,2.225710010928289
1761597263898909952,7.129909992218018,0.6679731011390686,-0.1848369836807251,-0.7822884321212769,-0.6636193990707397,0.45857128500938416,-0.5910344123840332,-0.10104429721832275,-0.034453243017196655,-0.0451807975769043,0.30524803636712705,0.2615741130571269,-0.3688655360567058,0.8380577578491537,-0.47638680145223283,-0.8431863557665085,2.226065482791197
1761597263908956160,7.139955997467041,0.5506120324134827,-0.14047928154468536,-0.825652539730072,-0.668269157409668,0.4495556354522705,-0.5927192568778992,-0.10742664337158203,-0.0635540783405304,-0.03571397066116333,0.3077532420598506,0.26459118519605235,-0.3655569412085406,0.8376441015748974,-0.46626781490381836,-0.8452398712406703,2.22463827903341
1761597263919002112,7.1500020027160645,0.460753470659256,-0.08948932588100433,-0.8089348077774048,-0.672631025314331,0.4410313367843628,-0.5941876173019409,-0.11298298835754395,-0.11756029725074768,-0.013951420783996582,0.3104933386325104,0.2672850650336161,-0.3625808650898397,0.837070939334815,-0.45674749229510475,-0.8472407644806066,2.222348426915142
1761597263929048064,7.160048007965088,0.4118209481239319,-0.04971645027399063,-0.8657146096229553,-0.6766853332519531,0.43283146619796753,-0.5956121683120728,-0.1195487380027771,-0.12066718935966492,0.02320927381515503,0.31347060722971726,0.2696711070163026,-0.3598213617731679,0.8363864236626667,-0.44763135070422166,-0.8490340014936402,2.2193607454766195
1761597263939094016,7.170094013214111,0.5313465595245361,-0.06356887519359589,-0.9486475586891174,-0.6809149384498596,0.4238441288471222,-0.5972529649734497,-0.13951963186264038,-0.03389051556587219,0.04345047473907471,0.3167308144176965,0.2721928891923187,-0.3567696181666544,0.835648338924604,-0.43768533251442626,-0.8507595478317167,2.216166090725714
1761597263949139968,7.180140018463135,0.6313377618789673,-0.11711539328098297,-0.9750016927719116,-0.6854897141456604,0.41366079449653625,-0.5991567373275757,-0.14449691772460938,0.014455050230026245,0.031117796897888184,0.32000642412959335,0.27513808561356223,-0.3531581407453909,0.8349697144573033,-0.42647135246676204,-0.8525009421718482,2.2136000864670535
1761597263959186176,7.190186023712158,0.5839012861251831,-0.1139984279870987,-0.9862782955169678,-0.6902071833610535,0.4031892716884613,-0.6008763909339905,-0.11875271797180176,-0.0014101266860961914,0.014099657535552979,0.3232191901426409,0.2782754270219317,-0.3494632994962304,0.8342466735162487,-0.41499928264716157,-0.8544786382239217,2.2112133002706686
1761597263969231104,7.200231075286865,0.5047612190246582,-0.10543400794267654,-0.9734252691268921,-0.694803774356842,0.3930353820323944,-0.6023046374320984,-0.11790984869003296,-0.014739513397216797,-0.006582081317901611,0.3265033282579017,0.28129415178790024,-0.3460076246585645,0.8333954309781457,-0.4039303240310989,-0.8565894620845569,2.208376275893495
1761597263979277056,7.210277080535889,0.3960307538509369,-0.07508009672164917,-0.9841349124908447,-0.6991188526153564,0.38354530930519104,-0.6034284830093384,-0.16216349601745605,-0.05538979172706604,-0.011592268943786621,0.3298516526936673,0.28404313140992654,-0.34293624117081667,0.8324134867759577,-0.3936321537738445,-0.8587304559644902,2.204953034659003
1761597263989323264,7.220323085784912,0.3852415382862091,-0.06081916764378548,-1.0169087648391724,-0.7033548951148987,0.37409326434135437,-0.6044386625289917,-0.20333760976791382,-0.07305261492729187,0.005775332450866699,0.3335470679403561,0.28663074426529345,-0.3400345466246659,0.8312434303723807,-0.38341886805008585,-0.8608904072611439,2.2006336493423775
1761597263999369216,7.2303690910339355,0.3481399714946747,-0.02328910306096077,-0.9788569808006287,-0.7073307633399963,0.36479267477989197,-0.6054828763008118,-0.23042863607406616,-0.08271870017051697,0.030241787433624268,0.33724512367069387,0.2890754257902017,-0.33718536289712714,0.8300645619558996,-0.373410135386481,-0.8628229535473743,2.196281178578558
1761597264009415168,7.240415096282959,0.3454821705818176,-0.02380901575088501,-0.9987175464630127,-0.7110382914543152,0.3556709587574005,-0.6065663695335388,-0.21765738725662231,-0.09871295094490051,0.01931661367416382,0.3410225323392599,0.2913355519831596,-0.3344255066902879,0.8288466672153372,-0.36363186982828666,-0.8645219043905708,2.191696390384401
1761597264019461120,7.250461101531982,0.36221614480018616,-0.041840482503175735,-1.0254300832748413,-0.7148112654685974,0.34627559781074524,-0.6075674295425415,-0.22622883319854736,-0.07416561245918274,0.024315476417541504,0.3448630255391604,0.2936925101576961,-0.33160368656585165,0.8275586175961435,-0.35359816836573454,-0.866320246078996,2.1870410197851116
1761597264029507072,7.260507106781006,0.4014175534248352,-0.024586061015725136,-1.0560780763626099,-0.718585729598999,0.33647093176841736,-0.6086229681968689,-0.23460030555725098,-0.07484373450279236,0.0042833685874938965,0.34868503378874116,0.29617069477622987,-0.32859008021032216,0.8262749655336448,-0.3431668069571653,-0.8680620319015562,2.182648835958797
1761597264039552000,7.270551919937134,0.3825666308403015,-0.0240654144436121,-1.1167975664138794,-0.7223337292671204,0.326209157705307,-0.6097718477249146,-0.22656464576721191,-0.079138845205307,-0.01188647747039795,0.35264759043909016,0.29870376048092423,-0.32540766005791577,0.8249398102109966,-0.332290560743958,-0.869697118702033,2.1781773311245978
1761597264049597952,7.280597925186157,0.3293129503726959,-0.04255327582359314,-1.1613589525222778,-0.7262287139892578,0.3157201111316681,-0.6106657385826111,-0.2422465682029724,-0.06465199589729309,0.007775723934173584,0.3568864117479742,0.3012981183277643,-0.3223144125715357,0.8233862446662041,-0.32121547396776273,-0.8716251984588456,2.173005343353577
1761597264059643904,7.290643930435181,0.2851090133190155,-0.016234321519732475,-1.2315473556518555,-0.7301435470581055,0.30509352684020996,-0.6113986968994141,-0.24809741973876953,-0.06754469871520996,0.0043125152587890625,0.36142178278919634,0.30385987526324904,-0.31932716641594744,0.8216286194287991,-0.3100366319824743,-0.8736817773509542,2.1670950731459873
1761597264069690112,7.300689935684204,0.22751151025295258,0.01346628274768591,-1.3017361164093018,-0.7339659333229065,0.29419854283332825,-0.6121610403060913,-0.24284064769744873,-0.07523494958877563,0.011559903621673584,0.36638049153831004,0.3063065080637237,-0.31637920580335865,0.8196619612323155,-0.29861684156147505,-0.8756378494073767,2.1602927848310904
1761597264079736064,7.3107359409332275,0.21803651750087738,0.012669464573264122,-1.3498998880386353,-0.7377219796180725,0.2830471694469452,-0.612903356552124,-0.2550147771835327,-0.07769441604614258,0.013675510883331299,0.37159882256369964,0.30871948951037675,-0.3134335659529697,0.8175365225596677,-0.28696972845532676,-0.8775518590082155,2.1529597161013934
1761597264089782016,7.320781946182251,0.2362884283065796,0.016780652105808258,-1.3996167182922363,-0.7414955496788025,0.27146801352500916,-0.6135873198509216,-0.25130224227905273,-0.06619152426719666,0.01590055227279663,0.3770363928805814,0.3112029188851433,-0.31041761447607424,0.81525280164574,-0.2749179902392941,-0.8795108009618754,2.1452472266018914
1761597264099827968,7.330827951431274,0.3581027388572693,0.09631142765283585,-1.4800902605056763,-0.7450120449066162,0.258882075548172,-0.6147658824920654,-0.2280867099761963,-0.057008326053619385,0.011433422565460205,0.3826536446260602,0.3137470891046652,-0.3068873064958135,0.812993886167371,-0.2618646402443385,-0.8808916885959553,2.1377953151292637
1761597264109873920,7.340873956680298,0.45447197556495667,0.06886855512857437,-1.5234482288360596,-0.7482633590698242,0.24511781334877014,-0.6164569854736328,-0.21870136260986328,-0.04136723279953003,-0.006788194179534912,0.3883777984316616,0.316427276854567,-0.3027297329563407,0.8107966022676997,-0.2476412175266907,-0.8816807586669121,2.1308611925941023
1761597264119919104,7.350919008255005,0.5359013080596924,0.0025289468467235565,-1.5429010391235352,-0.7517620325088501,0.2304842174053192,-0.6178436875343323,-0.2281268835067749,-0.013778910040855408,0.0003510117530822754,0.39386747231011776,0.31960704075814955,-0.2982104722056241,0.8085729746697381,-0.23257527409035705,-0.8828670749928595,2.124734945843067
1761597264129965056,7.360965013504028,0.5375680327415466,0.05105110630393028,-1.640244483947754,-0.7551249861717224,0.21519669890403748,-0.6192549467086792,-0.2156696915626526,-0.003969281911849976,-0.0247727632522583,0.3995540278367502,0.32287134817657304,-0.2934733516480797,0.8062159535594107,-0.21689324530904144,-0.8839371202589699,2.118418641315748
1761597264140011008,7.371011018753052,0.6438366770744324,-0.03300624340772629,-1.8066638708114624,-0.7586415410041809,0.19838020205497742,-0.6205710172653198,-0.2133890986442566,0.03607107698917389,-0.025714993476867676,0.4056926362510263,0.32650714130544084,-0.2882838303611667,0.8035540671973008,-0.19970500046085018,-0.88517394981554,2.111622531019493
1761597264150056960,7.381057024002075,0.6439827680587769,-0.054396387189626694,-1.813631534576416,-0.7624311447143555,0.18042348325252533,-0.6214065551757812,-0.22673511505126953,0.060543328523635864,-0.04080963134765625,0.4121291199591189,0.3305731265495511,-0.2828747755951951,0.8005328526350998,-0.18141697854919556,-0.8869559159948577,2.1043655537140964
1761597264160103168,7.391103029251099,0.5668837428092957,-0.012781566008925438,-1.8675847053527832,-0.7657874822616577,0.16258148849010468,-0.6222032308578491,-0.2083640694618225,-0.0046987831592559814,-0.07115614414215088,0.4187274565657307,0.33443666705179065,-0.27757974413377656,0.7973512493765756,-0.16330638329568223,-0.8884791020806443,2.0966038358055403
1761597264170149120,7.401149034500122,0.5344859957695007,-0.0036100386641919613,-1.9595260620117188,-0.7687553763389587,0.14438025653362274,-0.6230325698852539,-0.22274547815322876,-0.015321433544158936,-0.045683860778808594,0.4256811843966351,0.33817662433253604,-0.2722504117912064,0.7939218763776377,-0.14488664524756328,-0.8897199508841312,2.08809288047779
1761597264180195072,7.4111950397491455,0.5511264801025391,-0.030982008203864098,-1.988129734992981,-0.771558403968811,0.1257210522890091,-0.6236119866371155,-0.23462140560150146,-0.0031777173280715942,-0.042510390281677246,0.4327551088148508,0.34203624499411567,-0.26684302992099085,0.7902715633997717,-0.1260546166452634,-0.8910451585487974,2.0793323195606943
1761597264190240256,7.4212400913238525,0.6191644072532654,-0.006886292714625597,-2.011458158493042,-0.7740357518196106,0.10653816163539886,-0.6241140365600586,-0.2221342921257019,-0.010056838393211365,-0.0705270767211914,0.4396732314077152,0.34604524943952736,-0.26114301525031525,0.7866031372013961,-0.1067407419041174,-0.8922186619454244,2.0711248648359737
1761597264200286208,7.431286096572876,0.6332043409347534,-0.0204274021089077,-2.042012929916382,-0.7760711908340454,0.08680994808673859,-0.6246418952941895,-0.2206329107284546,-0.020495235919952393,-0.06748151779174805,0.446504410916073,0.3501302102993961,-0.2551232845550172,0.7829142587038703,-0.08691935205889309,-0.8930886532996546,2.063349360574839
1761597264210332160,7.441332101821899,0.6494516730308533,-0.05031123012304306,-2.080700635910034,-0.7778885364532471,0.06671202182769775,-0.6248511075973511,-0.25214076042175293,0.008803702890872955,-0.054714322090148926,0.45341453606900195,0.3543259272715136,-0.24905335210047994,0.7789999009986383,-0.06676160433534405,-0.894067317777913,2.055349602144796
1761597264220378112,7.451378107070923,0.6764233708381653,-0.06298734992742538,-2.161073923110962,-0.7794736623764038,0.045957621186971664,-0.6247469782829285,-0.2536989450454712,0.04548828303813934,-0.06199008226394653,0.4603999823116521,0.35871598230008434,-0.24279490756034314,0.7748582740322184,-0.04597381548813458,-0.8951423298630511,2.0472712721725754
1761597264230424064,7.461424112319946,0.7024377584457397,-0.0657975822687149,-2.2111003398895264,-0.780657172203064,0.02447592467069626,-0.6244800090789795,-0.23975908756256104,0.05792153626680374,-0.07801938056945801,0.4675857594501036,0.36320420627249006,-0.23631057779117887,0.7704567384862618,-0.0244783692802102,-0.8960910902670975,2.0388799991664723
1761597264240470016,7.471469879150391,0.6847213506698608,-0.05619874596595764,-2.2410991191864014,-0.7813582420349121,0.0026471628807485104,-0.6240772008895874,-0.2476792335510254,0.06044790893793106,-0.0823131799697876,0.47480418241274136,0.3677064920823659,-0.22968095075529163,0.7658979169335829,-0.002647165895218061,-0.896843586001033,2.0304267309199457
1761597264250515968,7.481515884399414,0.6758146286010742,-0.02629624307155609,-2.2608251571655273,-0.7814345359802246,-0.01926819235086441,-0.6236897110939026,-0.2585282325744629,0.062069088220596313,-0.09356492757797241,0.4821762104602469,0.3720417625754224,-0.22302482214860656,0.761151111285155,0.01926938443903726,-0.897194034320101,2.0215155125660713
1761597264260560896,7.491560935974121,0.7200215458869934,-0.005977656226605177,-2.280656337738037,-0.780847430229187,-0.041441161185503006,-0.6233457922935486,-0.27535080909729004,0.06333748996257782,-0.12389236688613892,0.48951167591906425,0.3763046558752761,-0.21615249306035136,0.7563407639546076,0.041453032853767675,-0.8970965061629176,2.0127214286701705
1761597264270607104,7.5016069412231445,0.8094481825828552,0.012710411101579666,-2.3053200244903564,-0.7795920968055725,-0.06420291215181351,-0.6229881644248962,-0.2849830985069275,0.07921753823757172,-0.15281444787979126,0.49674894077048115,0.3806232220041835,-0.2088824639027743,0.7514882890151698,0.06424710348933693,-0.8965917769513587,2.004334223765644
1761597264280653056,7.511652946472168,0.8242297768592834,0.011568181216716766,-2.317495584487915,-0.7777465581893921,-0.08743351697921753,-0.6224674582481384,-0.2913757562637329,0.09043947607278824,-0.16511493921279907,0.5038749665908286,0.385022073211536,-0.20130640207728182,0.7465546264937929,0.08754530123422796,-0.8958435477687513,1.9962700055158775
1761597264290699008,7.521698951721191,0.7658876776695251,0.0467381551861763,-2.3698208332061768,-0.7752569913864136,-0.11069165915250778,-0.6218713521957397,-0.2905846834182739,0.09480725228786469,-0.18173277378082275,0.5111135354710385,0.3892814510534265,-0.193711839070164,0.7414166779574374,0.11091896082746122,-0.8947466128695042,1.987738016093557
1761597264300744960,7.531744956970215,0.7068734169006348,0.10832908004522324,-2.4138681888580322,-0.7718502879142761,-0.13388976454734802,-0.6215471029281616,-0.2869265675544739,0.07987363636493683,-0.18300306797027588,0.5185643214480302,0.3932051130644755,-0.18605426485443405,0.7361146029857147,0.13429305296788546,-0.8928508167455315,1.9785193679003021
1761597264310790912,7.541790962219238,0.6843651533126831,0.1532781720161438,-2.4530365467071533,-0.7674606442451477,-0.15704388916492462,-0.6215636730194092,-0.29078209400177,0.04228252172470093,-0.18413090705871582,0.5262351804889905,0.39677248245162017,-0.17829685137021983,0.7306561636945272,0.15769668539232679,-0.8900500379111637,1.9685847462713995
1761597264320837120,7.551836967468262,0.7013523578643799,0.17287850379943848,-2.49900484085083,-0.7622382044792175,-0.18033897876739502,-0.6216678023338318,-0.29826289415359497,0.048747166991233826,-0.1743680238723755,0.5339422002005806,0.4001889461175302,-0.17033766638978098,0.725079061907701,0.1813310728459347,-0.8866260963902607,1.9584084928797876
1761597264330883072,7.561882972717285,0.8053600192070007,0.172771155834198,-2.539217472076416,-0.756290078163147,-0.2042635977268219,-0.6215317249298096,-0.2992366552352905,0.0991610586643219,-0.15930628776550293,0.5415686638735414,0.40373097273016056,-0.16197359501280728,0.7193533297694851,0.2057113844710995,-0.8828934481248593,1.9484169093432007
1761597264340928000,7.571928024291992,0.8911747932434082,0.1623757779598236,-2.562272071838379,-0.749686062335968,-0.22888430953025818,-0.6209532022476196,-0.2906429171562195,0.12079103291034698,-0.15172135829925537,0.5489046514924414,0.4075306677673775,-0.15310833255481554,0.7135687692357215,0.23093141241606976,-0.87904522584979,1.9391522038411537
1761597264350974208,7.581974029541016,0.8754547834396362,0.13957583904266357,-2.5706675052642822,-0.7425427436828613,-0.2536622881889343,-0.6199078559875488,-0.29149961471557617,0.13241595029830933,-0.14400815963745117,0.5562782965672487,0.4114003581620887,-0.144207522069932,0.7074662097994701,0.25646450231876144,-0.8751667544285029,1.9294324873891715
1761597264361020160,7.592020034790039,0.878455400466919,0.17362302541732788,-2.5984151363372803,-0.7346713542938232,-0.2782670855522156,-0.6187289357185364,-0.30687832832336426,0.1660538911819458,-0.1263883113861084,0.5636234171387752,0.4151377454719945,-0.13526337232583815,0.7012084312941514,0.2819894531055333,-0.8708570237331983,1.9193675575162894
1761597264371066112,7.6020660400390625,0.9296252727508545,0.19038450717926025,-2.589674234390259,-0.7259687781333923,-0.30293717980384827,-0.6174126863479614,-0.30956894159317017,0.15681901574134827,-0.12332522869110107,0.5709484713508067,0.4187877822390982,-0.126136631292475,0.6947835714077395,0.30777314162178043,-0.8660310470634297,1.9090139534661739
1761597264381112064,7.612112045288086,0.9153685569763184,0.19431079924106598,-2.5910959243774414,-0.7166203856468201,-0.3274270296096802,-0.6158300638198853,-0.32126718759536743,0.12932220101356506,-0.14234864711761475,0.5780904907896545,0.42239369338109567,-0.11691246938074526,0.6882778217989443,0.3335792160596837,-0.8608972044377489,1.8986771345671538
1761597264391158016,7.622158050537109,0.8746567368507385,0.2387247085571289,-2.6544926166534424,-0.7063578963279724,-0.35166940093040466,-0.6143184304237366,-0.3340473771095276,0.16479498147964478,-0.15573161840438843,0.5852543822845389,0.42575220790048585,-0.10759108091624782,0.6816424844294251,0.35935380453614346,-0.8549768170268657,1.8877925001517848
1761597264401204224,7.632204055786133,0.826498806476593,0.3211252987384796,-2.6990115642547607,-0.6948577165603638,-0.3758007287979126,-0.6131448745727539,-0.32749640941619873,0.1829296350479126,-0.1572103500366211,0.592525369093743,0.42874568875145663,-0.09800357564307974,0.6748972022327193,0.38526067474390235,-0.8477885760529082,1.8761768265558803
1761597264411249152,7.64224910736084,0.7068109512329102,0.3625164330005646,-2.745250940322876,-0.6821423172950745,-0.39934539794921875,-0.6125398874282837,-0.33455079793930054,0.14829257130622864,-0.1708463430404663,0.600205160608164,0.431157071414129,-0.08850790096483922,0.667850008556063,0.41080272332592077,-0.8391067156575898,1.86270801635229
1761597264421295104,7.652295112609863,0.8741171360015869,0.7657142281532288,-2.8057169914245605,-0.6677865982055664,-0.42254605889320374,-0.6127933859825134,-0.3478230834007263,0.1513058841228485,-0.1752161979675293,0.6080730083807077,0.4329171245316718,-0.07865155563922595,0.6607902751672012,0.4362526601472131,-0.8283157992951361,1.848098905082706
1761597264431341056,7.662340879440308,0.7060118317604065,0.2950507700443268,-2.7978708744049072,-0.6516149640083313,-0.4464379549026489,-0.6132627129554749,-0.3416253924369812,0.17899715900421143,-0.14601463079452515,0.6158521853424617,0.43447188096429656,-0.06784414901930905,0.6537258608020392,0.46278061587106895,-0.8157097786022466,1.8333496223050971
1761597264441387008,7.672386884689331,0.5336025357246399,0.4708881080150604,-2.9838478565216064,-0.636053740978241,-0.46851181983947754,-0.6131331324577332,-0.36071133613586426,0.23915699124336243,-0.018855392932891846,0.6238011234423831,0.4359276755354578,-0.05831383040218562,0.6460949032235229,0.4876055173107506,-0.8037445576663514,1.8165606459509418
1761597264451432960,7.6824328899383545,0.47426700592041016,0.6316362619400024,-2.946465253829956,-0.6182317733764648,-0.4906429350376129,-0.6140512824058533,-0.26473331451416016,0.2951320707798004,-0.13163048028945923,0.6324434163983603,0.4366244773438973,-0.048305512892725305,0.63799764928593,0.5128274628860781,-0.7887906347993201,1.7969240245978628
1761597264461478912,7.692478895187378,0.32950395345687866,0.7501951456069946,-2.8836958408355713,-0.5993062853813171,-0.5107638835906982,-0.6164026856422424,-0.29116612672805786,0.15470004081726074,-0.07674306631088257,0.6409694208498161,0.43625607176752657,-0.03846163531476547,0.6303646559213721,0.5360730910876158,-0.7713361821831697,1.7762085195144988
1761597264471524864,7.702524900436401,0.30744192004203796,0.7809484004974365,-2.8753600120544434,-0.5794861912727356,-0.5298141241073608,-0.6192679405212402,-0.33440840244293213,0.23702847957611084,-0.07781451940536499,0.6494705967891157,0.43536693021089473,-0.02866458476778751,0.622753534686449,0.5583813545165781,-0.7522244208446615,1.754267174607798
1761597264481570048,7.712569952011108,0.25792577862739563,0.8378628492355347,-2.896749258041382,-0.5588904619216919,-0.5480552315711975,-0.6223157644271851,-0.3650139570236206,0.3500571846961975,-0.12043631076812744,0.6578868007905849,0.43415066934681,-0.01884972291729617,0.6150958161231462,0.5800373979922254,-0.7317543317027901,1.7312793740354488
1761597264491616000,7.722615957260132,0.11794546991586685,0.929000735282898,-2.950909376144409,-0.5370166897773743,-0.5653695464134216,-0.6260753273963928,-0.28532516956329346,0.3350229263305664,-0.1207660436630249,0.666491077455397,0.4322986722806247,-0.00895494626043049,0.6073115074953087,0.600881190419001,-0.7089767033817906,1.7062902165336826
1761597264501661952,7.732661962509155,-0.03008127771317959,1.010138988494873,-3.000046968460083,-0.5137736797332764,-0.5813055038452148,-0.630967915058136,-0.28349804878234863,0.34715938568115234,-0.08634769916534424,0.6754446571506072,0.4295524339387388,0.0008573332870899474,0.5993817974487828,0.620332241758332,-0.6833774036653562,1.678599001719316
1761597264511707904,7.742707967758179,-0.08387316763401031,1.1165722608566284,-3.0416173934936523,-0.4891069531440735,-0.5961417555809021,-0.6367020010948181,-0.306257426738739,0.3622855544090271,-0.07878255844116211,0.6845813319020618,0.42606580780077574,0.010812789433779817,0.591353973266917,0.6386869915182061,-0.655040268329096,1.6486739973977076
1761597264521754112,7.752753973007202,-0.17085202038288116,1.2082244157791138,-3.037604331970215,-0.46322497725486755,-0.609929621219635,-0.6429685354232788,-0.29559457302093506,0.3531089425086975,-0.04889547824859619,0.6937095882574916,0.4219910708561435,0.020958924552929,0.5833106869971574,0.6559717922294332,-0.6243176336378685,1.6170686004918615
1761597264531800064,7.762799978256226,-0.20644858479499817,1.248132348060608,-3.044724225997925,-0.43641719222068787,-0.622389018535614,-0.6497476100921631,-0.28674256801605225,0.384412944316864,-0.011202037334442139,0.702817941585727,0.417323374244477,0.03110286925130029,0.5752571431928436,0.6717912430254434,-0.5914597359856018,1.583776190103956
1761597264541846016,7.772845983505249,-0.2905102074146271,1.417631983757019,-3.026020050048828,-0.408613383769989,-0.6336617469787598,-0.6568925976753235,-0.270555317401886,0.40391016006469727,-0.004820048809051514,0.7117778532215621,0.4121141702088596,0.04141993066983238,0.5672905751827916,0.6862774172418752,-0.5564678534402884,1.5492248410628364
1761597264551891968,7.7828919887542725,-0.33569660782814026,1.5780028104782104,-3.1016845703125,-0.3789878189563751,-0.6436350345611572,-0.6649077534675598,-0.24537131190299988,0.3132822513580322,-0.03104567527770996,0.720739159780478,0.40597997706929023,0.052214899002388536,0.559454264995356,0.6992384448925051,-0.518057643585063,1.5127728325910608
1761597264561937152,7.7929370403289795,-0.3575558364391327,1.6627485752105713,-3.1819088459014893,-0.3476423919200897,-0.6528006196022034,-0.673049807548523,-0.2760453522205353,0.32397377490997314,-0.020294249057769775,0.7297357541077413,0.3993020048354926,0.063505918708644,0.5513714652727945,0.7112755937739873,-0.4767745647409533,1.474154908821279
1761597264571983104,7.802983045578003,-0.43155086040496826,1.817392110824585,-3.2642006874084473,-0.314562052488327,-0.660871148109436,-0.6813955903053284,-0.2894570827484131,0.3767372965812683,-0.028733134269714355,0.7387473498074971,0.39196806008609825,0.07525453331249694,0.5430930199722952,0.7219789352484998,-0.4324946257918037,1.4333592274181968
1761597264582029056,7.813029050827026,-0.4892463982105255,1.9404168128967285,-3.338745355606079,-0.2795432507991791,-0.6675270199775696,-0.6901183724403381,-0.28002703189849854,0.3832252621650696,-0.01346445083618164,0.7478322244803018,0.38378633472528817,0.08745785314259515,0.5346084873439447,0.7308825085255831,-0.38486570607069126,1.3901126948300968
1761597264592075008,7.82307505607605,-0.5438660383224487,2.047086238861084,-3.3409063816070557,-0.2431647926568985,-0.6727344393730164,-0.6987841725349426,-0.2980339527130127,0.38669317960739136,0.020393669605255127,0.7567717265354093,0.37498227592166117,0.09998103961053786,0.5260121090381007,0.7378983805114896,-0.3348765229392695,1.345343954604099
1761597264602121216,7.833121061325073,-0.6018233299255371,2.177767038345337,-3.3385579586029053,-0.20561988651752472,-0.6761720776557922,-0.707468569278717,-0.298606812953949,0.400537371635437,0.05893951654434204,0.765468433237355,0.3654497482560848,0.11274843517340269,0.5174864926860082,0.7425544314665963,-0.28284926682237577,1.29967548485243
1761597264612167168,7.843167066574097,-0.5873575806617737,2.2180590629577637,-3.302896022796631,-0.1672009378671646,-0.6781352758407593,-0.7156650424003601,-0.3026019334793091,0.456745445728302,0.09377783536911011,0.7738035205008928,0.3554571191989066,0.1257685085433981,0.5089800545784708,0.7452223835288829,-0.2295134170597654,1.2536726826169011
1761597264622213120,7.85321307182312,-0.5627363920211792,2.219484567642212,-3.203047275543213,-0.12903738021850586,-0.6788477301597595,-0.7228520512580872,-0.28720712661743164,0.5091090202331543,0.14588677883148193,0.7815817980586758,0.3454535859897506,0.13869314831475868,0.5005556101292725,0.7461922496914398,-0.17665074509269157,1.2085483034121791
1761597264632258048,7.863257884979248,-0.6209633350372314,2.3077452182769775,-3.1644694805145264,-0.09087467938661575,-0.678059995174408,-0.7293671369552612,-0.23030754923820496,0.5094656944274902,0.1524171233177185,0.7888687289723569,0.3351739962233602,0.1515744852066275,0.4923106050752279,0.7451200077554488,-0.12395510453986673,1.1643586119247737
1761597264642304000,7.8733038902282715,-0.6211042404174805,2.333064317703247,-3.171144485473633,-0.0521925687789917,-0.6757645606994629,-0.7352674603462219,-0.2075425386428833,0.5129990577697754,0.14322644472122192,0.7958200729227753,0.3244749264785497,0.16456700564941296,0.4840497597916296,0.7420014369834391,-0.07086560057128732,1.1204905086908898
1761597264652349952,7.883349895477295,-0.7165892124176025,2.4824790954589844,-3.171327590942383,-0.013024447485804558,-0.6719337701797485,-0.7404967546463013,-0.2162541002035141,0.527448296546936,0.14363396167755127,0.802458584796631,0.313355922654444,0.17765050154576736,0.4757190886181384,0.7368167507872704,-0.017586985023452333,1.0770464203432837
1761597264662395904,7.893395900726318,-0.9081706404685974,2.7268295288085938,-3.209463357925415,0.027881301939487457,-0.665575385093689,-0.7458096742630005,-0.19775740802288055,0.46528851985931396,0.09699070453643799,0.8088596950144162,0.3009032115574691,0.19118686363370826,0.46760118159915043,0.7282644803782862,0.037366535840671296,1.0340778454200112
1761597264672441856,7.903441905975342,-0.9554614424705505,2.812974452972412,-3.1896982192993164,0.07003447413444519,-0.656920850276947,-0.7506998181343079,-0.2439541518688202,0.463653028011322,0.10278111696243286,0.8149562503248555,0.28741453605217904,0.20504384305385537,0.45956105034217265,0.7167275153620095,0.09302299491487831,0.9920561985770221
1761597264682488064,7.913487911224365,-0.9199476838111877,2.9132778644561768,-3.0790300369262695,0.11225448548793793,-0.6469897031784058,-0.7541904449462891,-0.27610334753990173,0.5211809873580933,0.13469886779785156,0.8204035730871628,0.27368024830491094,0.21909789246380545,0.4517003096540783,0.7036298229997497,0.14775628242046204,0.9522565609051358
1761597264692534016,7.923533916473389,-0.9050986170768738,2.8695271015167236,-2.921502113342285,0.15360796451568604,-0.6360155344009399,-0.7562333345413208,-0.22492752969264984,0.5232530832290649,0.2005845308303833,0.8250896752458617,0.2599494902221556,0.233044198324224,0.4442339112570923,0.6893238417156061,0.2003961046964669,0.915647221122846
1761597264702579968,7.933579921722412,-0.8163474202156067,2.7441136837005615,-2.7800185680389404,0.1929289847612381,-0.6245282888412476,-0.7567977905273438,-0.1928068995475769,0.5835279226303101,0.29395294189453125,0.8291120495666355,0.24675187470536697,0.246403345606219,0.43700371890730294,0.6745273706201927,0.24961142621002338,0.8822140832485971
1761597264712625152,7.943624973297119,-0.8585737347602844,2.735142230987549,-2.663795232772827,0.23060934245586395,-0.6124695539474487,-0.7561087012290955,-0.12401145696640015,0.5843323469161987,0.32201141119003296,0.832553528639752,0.23389740015569144,0.259302249791133,0.43001046923690395,0.6591809153840231,0.2960330059871905,0.8515931919574806
1761597264722671104,7.953670978546143,-0.8957149982452393,2.6844849586486816,-2.5666913986206055,0.267110139131546,-0.5992434620857239,-0.7546915411949158,-0.08154803514480591,0.5164645910263062,0.3569713234901428,0.8355535577722384,0.22090962210238596,0.27175936937428996,0.42331536186108065,0.6425557849653556,0.34017417246929493,0.8236796955164749
1761597264732717056,7.963716983795166,-1.0020575523376465,2.682976245880127,-2.528388500213623,0.3025296926498413,-0.5847998857498169,-0.7526519298553467,-0.0902341902256012,0.4739447832107544,0.3488433361053467,0.8381896464403727,0.2077215819662865,0.28377067184770194,0.4168502181570223,0.6246333470831015,0.38218773691371394,0.7982415132051323
1761597264742763008,7.9737629890441895,-1.1491466760635376,2.6920857429504395,-2.469539165496826,0.33725354075431824,-0.5686967968940735,-0.7502293586730957,-0.08301156759262085,0.425828754901886,0.3134617805480957,0.8405637504317522,0.19400874318253672,0.2953742150691253,0.4105696120073044,0.6049206237412951,0.42246624550148293,0.7751019837761092
1761597264752809728,7.98380970954895,-1.3503042459487915,2.728402853012085,-2.3969666957855225,0.3713676333427429,-0.5506234169006348,-0.7475961446762085,-0.11030498147010803,0.38830041885375977,0.3118356466293335,0.8426195524202513,0.1794863813180749,0.30657228321526697,0.4047103165175199,0.5831108612885098,0.46104340773914737,0.7548934494968181
1761597264762855680,7.993855714797974,-1.5179376602172852,2.6908178329467773,-2.229954242706299,0.4042850434780121,-0.5307862758636475,-0.7448621392250061,-0.1248965859413147,0.33555006980895996,0.2998853325843811,0.8442945609343416,0.16427043834882027,0.31715005282374037,0.3994970137196171,0.5595280458937105,0.49727147536474814,0.7382863584642535
1761597264772901888,8.003901720046997,-1.6184788942337036,2.645031690597534,-2.0591936111450195,0.43538275361061096,-0.5100293159484863,-0.7418301701545715,-0.12675845623016357,0.2974134087562561,0.28725558519363403,0.845491616029953,0.14882650968684064,0.3270100819634665,0.3950431872922147,0.535218902862804,0.5307341157921088,0.725427587871323
1761597264782946560,8.013946533203125,-1.6521183252334595,2.5516467094421387,-1.897071123123169,0.4646255075931549,-0.4888654351234436,-0.7383317351341248,-0.07778465747833252,0.260166734457016,0.31691449880599976,0.8462317415221343,0.133415206186113,0.33620606735210223,0.3912259604741355,0.5107887220287304,0.5616790264226466,0.7157467745320669
1761597264792992512,8.023992538452148,-1.5997986793518066,2.4585812091827393,-1.779593825340271,0.49188196659088135,-0.46801385283470154,-0.734176516532898,-0.052032142877578735,0.27289971709251404,0.34020984172821045,0.8465749204597286,0.1184714425186998,0.3447843614775698,0.3878133567841778,0.4870419692056966,0.5902914244652513,0.7083488428030686
1761597264803038720,8.034038543701172,-1.5448352098464966,2.4338924884796143,-1.7414922714233398,0.5179217457771301,-0.44753721356391907,-0.7290181517601013,-0.007927238941192627,0.27706602215766907,0.3105611801147461,0.84658241257147,0.10396558674550523,0.3531034816154276,0.3844571792180174,0.4640094554635841,0.6176966229002396,0.7020876217050562
1761597264813084672,8.044084548950195,-1.5297391414642334,2.423352003097534,-1.672922134399414,0.5431279540061951,-0.42721977829933167,-0.7228383421897888,0.008034765720367432,0.24296990036964417,0.2807759642601013,0.8462563092343597,0.08969410755340258,0.3612973824510765,0.3811422049530652,0.4414155629496742,0.6443852176484586,0.6968337070658576
1761597264823130624,8.054130554199219,-1.513400912284851,2.41544246673584,-1.5940250158309937,0.5673843026161194,-0.4071302115917206,-0.7157653570175171,-0.01843416690826416,0.21871468424797058,0.2458862066268921,0.8454924973829832,0.07556300723944641,0.3693339406819912,0.37818659483710404,0.4193098658774832,0.6702713830778597,0.6932663822714759
1761597264833176576,8.064176559448242,-1.531954050064087,2.4589834213256836,-1.4928843975067139,0.5909820795059204,-0.3872470557689667,-0.707658052444458,-0.02955019474029541,0.17280006408691406,0.2081005573272705,0.8443685797993247,0.0615857687866026,0.37733032090768165,0.37532750167632956,0.3976438109742377,0.695794010079679,0.6906768438629473
1761597264843222528,8.074222564697266,-1.4820157289505005,2.3743388652801514,-1.363979697227478,0.6134592890739441,-0.36790475249290466,-0.6987945437431335,-0.030359983444213867,0.13940441608428955,0.20469969511032104,0.8428433921728041,0.04789382764451235,0.3851089732372359,0.3728435193566828,0.3767547387651061,0.720460090285368,0.6896040928849451
1761597264853268736,8.084268569946289,-1.4240988492965698,2.3568129539489746,-1.2615916728973389,0.6346064209938049,-0.34957942366600037,-0.689252495765686,-0.0006037354469299316,0.12545832991600037,0.17924273014068604,0.8409821143686437,0.03479542555076415,0.3926360027180924,0.37064197026076934,0.3571221679708068,0.744143715001971,0.689594114869522
1761597264863313664,8.094313621520996,-1.3383450508117676,2.3055408000946045,-1.2069056034088135,0.6548346877098083,-0.33205774426460266,-0.678917646408081,0.06350326538085938,0.08639124035835266,0.17310404777526855,0.8388311752169609,0.022161963784754164,0.40006250908315005,0.36853921860494504,0.3384842627471013,0.7673435737206634,0.6901822224531331
1761597264873359616,8.10435962677002,-1.2666897773742676,2.2271623611450195,-1.1532009840011597,0.673939049243927,-0.3154164254665375,-0.668070912361145,0.05515646934509277,0.10815629363059998,0.18101036548614502,0.836530763211466,0.010144397313173514,0.40726112451164864,0.36640401368687664,0.32089544461482833,0.7897707465372695,0.6909698080660834
1761597264883405568,8.114405632019043,-1.298495888710022,2.267622947692871,-1.1170520782470703,0.692347526550293,-0.2991100549697876,-0.6566490530967712,0.062397897243499756,0.0940624475479126,0.13801813125610352,0.8340127131028796,-0.0016851669320416662,0.4143339504499095,0.364344932736339,0.3037598688961239,0.8118549559849683,0.6923631610778087
1761597264893451776,8.124451637268066,-1.244005799293518,2.271555185317993,-1.0578703880310059,0.7103732824325562,-0.28307005763053894,-0.6443920731544495,0.05531275272369385,0.04451414942741394,0.12823301553726196,0.8311828015733858,-0.013472285444126868,0.4214528049194736,0.36239636842290807,0.28699359503051664,0.8340627576058848,0.6944543331889254
1761597264903497728,8.13449764251709,-1.1189589500427246,2.2325942516326904,-0.972912609577179,0.7275728583335876,-0.2681393623352051,-0.6314578652381897,0.019970476627349854,0.027187824249267578,0.1270785927772522,0.8281154881406185,-0.024660798669559027,0.42855911090699933,0.3604909225554328,0.2714611443550823,0.8560037976703263,0.6967025048743639
1761597264913543680,8.144543647766113,-0.9818177819252014,2.172273874282837,-0.9114018678665161,0.7438945770263672,-0.2545885145664215,-0.6179042458534241,0.018510818481445312,0.058619916439056396,0.0980525016784668,0.8248662059798834,-0.03505239399525512,0.4356824743170279,0.3585358707340321,0.2574221789936517,0.877653143216704,0.6987045065405859
1761597264923589632,8.154589653015137,-0.8336458802223206,2.0935754776000977,-0.8488673567771912,0.7591198086738586,-0.2423551380634308,-0.6041533350944519,0.03592419624328613,0.10096721351146698,0.0918089747428894,0.8215906069824261,-0.04456005666876988,0.44264855638743217,0.35646268090659833,0.24479262176404132,0.8985846840073517,0.7002286295908589
1761597264933634816,8.164634704589844,-0.7343013286590576,2.073458433151245,-0.7827775478363037,0.7735217809677124,-0.231338232755661,-0.5900394320487976,0.07187610864639282,0.07734653353691101,0.07395678758621216,0.8181988021266028,-0.05334697882220166,0.4495935652681159,0.3543590563713617,0.23345300712707215,0.9191558573709456,0.7014778888509722
1761597264943680768,8.174680709838867,-0.6500548720359802,1.9861551523208618,-0.7317063808441162,0.7871221303939819,-0.2213883399963379,-0.5756961703300476,0.09460699558258057,0.047590747475624084,0.08842200040817261,0.814721779274838,-0.061490319003663654,0.4564765675586176,0.3522451795523894,0.22323790495921944,0.9393099862088405,0.7025091416655709
1761597264953726720,8.18472671508789,-0.6710729002952576,1.944045066833496,-0.6869662404060364,0.7998260855674744,-0.21195898950099945,-0.5615618228912354,0.08225399255752563,0.07514870166778564,0.08414483070373535,0.8112506765546028,-0.06926555267790456,0.46305654105180893,0.3502190454185518,0.21357905802672875,0.9586590535017118,0.7037498637793478
1761597264963772672,8.194772720336914,-0.7080865502357483,1.958456039428711,-0.6371326446533203,0.8120548129081726,-0.2027517855167389,-0.547228217124939,0.09434777498245239,0.03765168786048889,0.042482733726501465,0.8075955256415963,-0.07704294431150942,0.4695213274306851,0.3484302374301783,0.20416725469135522,0.9778158896770541,0.7057427055112359
1761597264973818880,8.204818725585938,-0.7097655534744263,1.9443753957748413,-0.5938458442687988,0.8238497376441956,-0.19381429255008698,-0.5326422452926636,0.08072179555892944,-0.023531898856163025,0.030963778495788574,0.8037544342158316,-0.08479956289743758,0.4759074761238932,0.3468429815858103,0.19504867431770365,0.9968655114370952,0.7083784881948092
1761597264983864832,8.214864730834961,-0.6325690150260925,1.8977245092391968,-0.5637997984886169,0.8350667953491211,-0.18542896211147308,-0.5179572105407715,0.061707496643066406,-0.015300393104553223,0.030026912689208984,0.7998476931496912,-0.09224363141281018,0.4821955183320367,0.34528595287846225,0.18650838139047396,1.015613980216146,0.7110495740417451
1761597264993910784,8.224910736083984,-0.579217791557312,1.883266806602478,-0.5507060289382935,0.8457660675048828,-0.17763651907444,-0.5031154155731201,0.06927299499511719,-0.009741395711898804,0.006487607955932617,0.795977066552172,-0.09919984321718218,0.4884687226446134,0.34347963811811755,0.17858425202702155,1.0341621891010393,0.7130171054623696
1761597265003955712,8.234955549240112,-0.5246288180351257,1.8659977912902832,-0.526299238204956,0.8560117483139038,-0.17026549577713013,-0.48811233043670654,0.08637106418609619,-0.02547423541545868,0.004317104816436768,0.7920358354858085,-0.1059150487527239,0.4946977263405205,0.34166573264456007,0.17109909094617645,1.052564135262201,0.7149605206080202
1761597265014001664,8.245001554489136,-0.5390691161155701,1.8371732234954834,-0.5006234645843506,0.8657917976379395,-0.16323433816432953,-0.47303178906440735,0.08512067794799805,-0.009525671601295471,0.032388508319854736,0.7880577876711634,-0.11240719251632211,0.5008480042172283,0.33982471607806164,0.1639680758119991,1.0707540127707866,0.7168499314771073
1761597265024047616,8.25504755973816,-0.5571548938751221,1.8303773403167725,-0.4616129398345947,0.875126302242279,-0.15642429888248444,-0.45791423320770264,0.09312015771865845,-0.004586443305015564,0.05421245098114014,0.7839534945254213,-0.11889017125388866,0.5068609428610465,0.3381923930354455,0.15706934090505745,1.0887182624945726,0.7193378271697337
1761597265034093568,8.265093564987183,-0.4943453073501587,1.7934845685958862,-0.4367484152317047,0.883997917175293,-0.15008486807346344,-0.4427442252635956,0.09955322742462158,-0.009384721517562866,0.04493230581283569,0.7797518679881127,-0.12518028421357716,0.5127940989468669,0.3366887295823537,0.15065411102549647,1.1064744914843063,0.722066782677865
1761597265044139520,8.275139570236206,-0.47060108184814453,1.7973840236663818,-0.4321885406970978,0.8924601674079895,-0.14410895109176636,-0.42748984694480896,0.095988929271698,0.009785845875740051,0.028899729251861572,0.7755498831918458,-0.1311861604801559,0.5186957417355804,0.3350632665994852,0.1446124706813807,1.12408812211389,0.7244525646438635
1761597265054185728,8.28518557548523,-0.5282776951789856,1.8289294242858887,-0.40130841732025146,0.9006866812705994,-0.13825082778930664,-0.41188642382621765,0.07334297895431519,0.019018664956092834,0.029730021953582764,0.7712400331093316,-0.13714472115135598,0.5246409391989197,0.33336497228229095,0.1386950620276852,1.141886122977003,0.7268154692499142
1761597265064231680,8.295231580734253,-0.5570049285888672,1.8261871337890625,-0.37404218316078186,0.9086253643035889,-0.1325053572654724,-0.3960329294204712,0.04948914051055908,0.020322740077972412,0.02171960473060608,0.7667144064223333,-0.14325565314433245,0.530529313046565,0.33191163994584977,0.1328962061067016,1.159763722153376,0.7299677418257143
1761597265074277632,8.305277585983276,-0.5925197005271912,1.8515033721923828,-0.3475046753883362,0.9162410497665405,-0.1269693225622177,-0.3799753487110138,0.05520987510681152,-0.0018606334924697876,-0.0035848617553710938,0.7620531830451214,-0.14935429547204498,0.5363819737405332,0.3305490951739127,0.1273129683466348,1.177672628372177,0.7334436803503492
1761597265084322816,8.315322637557983,-0.6040962338447571,1.8709990978240967,-0.31273895502090454,0.9236108064651489,-0.12165866792201996,-0.3635137379169464,0.06375491619110107,-0.011932022869586945,-0.009411036968231201,0.7571332935624815,-0.1555745087126458,0.5422542733389548,0.32940261225681444,0.12196079280133562,1.1958375912227752,0.7376095771285328
1761597265094368768,8.325368642807007,-0.5274999737739563,1.84657621383667,-0.28891244530677795,0.9305926561355591,-0.11683608591556549,-0.34691011905670166,0.05485039949417114,0.03160049021244049,0.00380098819732666,0.752097056210946,-0.1616112323730883,0.5481119847781781,0.32833687338052664,0.11710354785881304,1.2139698046001706,0.7418759157682482
1761597265104414720,8.33541464805603,-0.48099905252456665,1.871801495552063,-0.26925379037857056,0.9372185468673706,-0.11250066757202148,-0.33009880781173706,0.04160231351852417,0.055768512189388275,-0.01073676347732544,0.74701375616349,-0.16732685236318492,0.5540327849535174,0.3271391170386219,0.1127393419487466,1.232153046512836,0.7456794499951757
1761597265114460672,8.345460653305054,-0.45662349462509155,1.8955066204071045,-0.24099276959896088,0.9435860514640808,-0.10854624956846237,-0.3128306269645691,0.036684274673461914,0.05166148394346237,0.008768707513809204,0.7418084892485808,-0.1728212316566586,0.5601049113194438,0.3257842909257426,0.10876054122973444,1.2506662691384909,0.7490709251687561
1761597265124506624,8.355506658554077,-0.4218151569366455,1.9190614223480225,-0.20390905439853668,0.949640691280365,-0.10506683588027954,-0.29520100355148315,0.01854473352432251,0.060282304883003235,0.035099685192108154,0.7364301634469677,-0.17815113035703928,0.5662699658259392,0.32445528728184997,0.10526110957956004,1.2694103891742614,0.7524415799779633
1761597265134552832,8.3655526638031,-0.38896405696868896,1.9647983312606812,-0.1804526448249817,0.9554173350334167,-0.10205748677253723,-0.2770594656467438,0.017132043838500977,0.06407835334539413,0.026922106742858887,0.7309111796798843,-0.18320200487795577,0.5726319008511161,0.3229529044962007,0.10223548694682895,1.2885500753314345,0.755281575401414
1761597265144598784,8.375598669052124,-0.40035784244537354,2.010514259338379,-0.1612512469291687,0.960925817489624,-0.09932567924261093,-0.2583717107772827,0.0169793963432312,0.06099560856819153,0.0384620726108551,0.7251602855760777,-0.18822739871104557,0.5791239835084476,0.32144735876423775,0.09948972848267916,1.308130646504716,0.7582005135598942
1761597265154643712,8.385643720626831,-0.4087991714477539,2.0799472332000732,-0.13614234328269958,0.966177225112915,-0.09684175252914429,-0.23900455236434937,0.0010163187980651855,0.06945222616195679,0.04074712097644806,0.719131745205069,-0.19326964858427437,0.5857854249130761,0.3199246796132861,0.09699376070539634,1.3282932260104614,0.7612228741279206
1761597265164689664,8.395689725875854,-0.40798211097717285,2.112351894378662,-0.11883525550365448,0.9711163640022278,-0.0946696475148201,-0.21902203559875488,-0.011506378650665283,0.0723612904548645,0.05685162544250488,0.7127331211829985,-0.19847772046283682,0.5925331842554222,0.3186259819785469,0.09481162865567458,1.3489714386217115,0.7649627040881918
1761597265174735872,8.405735731124878,-0.4683859646320343,2.1940834522247314,-0.11037413030862808,0.975736141204834,-0.09259837120771408,-0.19840456545352936,-0.023130059242248535,0.06072274595499039,0.07447269558906555,0.7061292030283468,-0.20366055236422437,0.5994331433600325,0.31714937768525836,0.09273121306029686,1.3701928881180614,0.7684823465661794
1761597265184781824,8.415781736373901,-0.5322102308273315,2.2410852909088135,-0.09007524698972702,0.9800155758857727,-0.09065438061952591,-0.1770627349615097,-0.03699195384979248,0.0645313411951065,0.09670998156070709,0.6991005446056072,-0.2091695879852648,0.6063964984928558,0.31589523245806234,0.0907790109730707,1.3920512081647167,0.7729353152220753
1761597265194827520,8.425827503204346,-0.5860863327980042,2.2582056522369385,-0.06485466659069061,0.9838352203369141,-0.08893543481826782,-0.15543007850646973,-0.05311024188995361,0.08959155529737473,0.10818888247013092,0.6917670641055166,-0.21490242126980427,0.6132714810078589,0.3149178493605253,0.08905309626690772,1.414107504701284,0.7782983715836034
1761597265204873472,8.43587350845337,-0.662009060382843,2.320678472518921,-0.03180590271949768,0.9871906042098999,-0.08753232657909393,-0.13338907063007355,-0.03728532791137695,0.08542660623788834,0.09240397810935974,0.6840601704265933,-0.22088804194775707,0.620091875820947,0.3142548407512299,0.08764448872653856,1.4364898624079907,0.7846709158440458
1761597265214919680,8.445919513702393,-0.7790555953979492,2.4306817054748535,-0.0038220295682549477,0.9901157021522522,-0.08644146472215652,-0.11044808477163315,-0.016940712928771973,0.06796307116746902,0.10852546244859695,0.675900253443426,-0.22705644713788686,0.6270736218402755,0.3136605241772985,0.08654947535547183,1.4597049158706177,0.7915332426635169
1761597265224964608,8.4559645652771,-0.8619310259819031,2.536620616912842,0.05776836723089218,0.9925461411476135,-0.08585524559020996,-0.08649352192878723,-0.019401609897613525,0.06534744054079056,0.13550472259521484,0.6671059237158622,-0.23358125821334857,0.6341869090544484,0.3133950879445412,0.08596106854980833,1.4838728389271303,0.7995627810380598
1761597265235010560,8.466010570526123,-0.9056473970413208,2.6625301837921143,0.07687041908502579,0.9944143891334534,-0.08591388165950775,-0.06130985543131828,-0.02761751413345337,0.08339617401361465,0.12669378519058228,0.657676265604975,-0.24025315921082602,0.6415789050744142,0.3132362040388564,0.08601992432446982,1.5092200387913277,0.8080942924018512
1761597265245056512,8.476056575775146,-0.9723537564277649,2.7575995922088623,0.05866212025284767,0.9956696629524231,-0.08611580729484558,-0.03501937538385391,-0.02026665210723877,0.08889294415712357,0.1472172737121582,0.647671719436083,-0.24730807077209035,0.649098629238609,0.31309933324371236,0.08622260414411478,1.5356391375171485,0.8173496978916981
1761597265255102720,8.48610258102417,-1.0732346773147583,2.837357521057129,0.05245038494467735,0.9962289929389954,-0.08640183508396149,-0.007911006920039654,-0.03458958864212036,0.10838976502418518,0.17136317491531372,0.6371786336754826,-0.25473501912635305,0.6566236109046892,0.3129839139410852,0.0865096975992534,1.5628555410821372,0.8273439256721093
1761597265265148672,8.496148586273193,-1.222536563873291,2.930859327316284,0.053609129041433334,0.9960097074508667,-0.08698718249797821,0.01994169130921364,-0.04665374755859375,0.12601915001869202,0.17036592960357666,0.626064303646536,-0.2626947937362777,0.664049916035268,0.3131653515360985,0.0870972617999714,1.5908152353093659,0.8387792554865091
1761597265275194624,8.506194591522217,-1.3586434125900269,3.041884183883667,0.05977781116962433,0.9949356317520142,-0.0879603698849678,0.04864148050546646,-0.040437400341033936,0.1178065687417984,0.18881583213806152,0.6142983599455698,-0.27112091485908185,0.6714269796422287,0.3135550498821856,0.0880741955370372,1.6196465023175164,0.8514311098732297
1761597265285240576,8.51624059677124,-1.5390371084213257,3.181957244873047,0.09586577117443085,0.9928843975067139,-0.08961925655603409,0.07841569930315018,-0.03370165824890137,0.09080944210290909,0.2250511646270752,0.6016466340045248,-0.2801591062454275,0.6787626430183717,0.31434612951778385,0.08973965302296057,1.649610407408686,0.8658377685764018
1761597265295285760,8.526285648345947,-1.621429204940796,3.2621421813964844,0.13299724459648132,0.9897468686103821,-0.09222202748060226,0.10907088220119476,-0.03036564588546753,0.10683993995189667,0.24636735022068024,0.5882159534061393,-0.28947659462059305,0.6861040322307478,0.31538331738313113,0.09235325540591433,1.680554237451198,0.881253622254301
1761597265305331712,8.53633165359497,-1.6327446699142456,3.350623607635498,0.156126007437706,0.9854758977890015,-0.09568207710981369,0.14029330015182495,-0.031114935874938965,0.1671084761619568,0.22144675254821777,0.5741967538667045,-0.298858166466888,0.693419386892361,0.3164671092113967,0.09582868021579209,1.7122070953571313,0.897038137326025
1761597265315377664,8.546377658843994,-1.7302523851394653,3.49645733833313,0.16086030006408691,0.9799476861953735,-0.09983717650175095,0.17243851721286774,-0.01960533857345581,0.17771804332733154,0.20747482776641846,0.5594707522056079,-0.3084078225133107,0.7007880368155976,0.31744797664245045,0.10000377801769825,1.7449801623302728,0.9131233498106761
1761597265325423616,8.556423664093018,-1.9013152122497559,3.6279141902923584,0.1592285931110382,0.9730170965194702,-0.10485390573740005,0.20553162693977356,-0.037012577056884766,0.16978006064891815,0.23793455958366394,0.543769754027457,-0.3185173789269685,0.7080342457770178,0.3186668886331301,0.10504699682872222,1.7789674831681996,0.9306800870438281
1761597265335469824,8.566469669342041,-2.0018091201782227,3.7372848987579346,0.13583262264728546,0.9646328091621399,-0.11064298450946808,0.23925210535526276,-0.06221282482147217,0.17799529433250427,0.24278831481933594,0.5272706697280971,-0.3289956569992438,0.7151139145182811,0.31993679579509,0.11086998700416602,1.813914377989891,0.9491425896106956
1761597265345515776,8.576515674591064,-2.024761915206909,3.887279748916626,0.1445411592721939,0.9546558856964111,-0.11710948497056961,0.27371078729629517,-0.05600476264953613,0.168256938457489,0.22998178005218506,0.5099764265896263,-0.33975807083610926,0.7220940667614727,0.32104314296538655,0.11737883489955266,1.8500176475722794,0.9680678518672482
1761597265355561728,8.586561679840088,-2.098630666732788,3.983761787414551,0.1632683277130127,0.9429548978805542,-0.12455693632364273,0.30874207615852356,-0.0407637357711792,0.16987556219100952,0.20526549220085144,0.4918844536523036,-0.35060143886939893,0.7290059434034301,0.32199170199652666,0.12488127571492551,1.8872152623539686,0.9871244840407228
1761597265365607680,8.596607685089111,-2.1944761276245117,4.079768657684326,0.17147912085056305,0.9295328855514526,-0.13316021859645844,0.34385597705841064,-0.03845012187957764,0.21484053134918213,0.18245017528533936,0.47299318393104395,-0.3616350721102699,0.7356276698681024,0.3230316731656531,0.13355692425984803,1.925108880116244,1.0068788549653085
1761597265375652864,8.606652736663818,-2.3075437545776367,4.278332233428955,0.17090104520320892,0.9141393899917603,-0.14285579323768616,0.3793964385986328,-0.015488147735595703,0.22316278517246246,0.15037351846694946,0.4531524187399753,-0.3728880892003373,0.7420597661727025,0.32396721514093235,0.1433462048065108,1.9641931790441762,1.0270973145629347
1761597265385698560,8.616698503494263,-2.494356155395508,4.480036735534668,0.19519279897212982,0.8963759541511536,-0.154109925031662,0.4156443178653717,-0.0016616582870483398,0.18471907079219818,0.1291097104549408,0.43191642740868347,-0.38463045694023473,0.7482523458162661,0.32500155775411455,0.15472655863210227,2.004979805806729,1.0485527265112313
1761597265395744512,8.626744508743286,-2.6712331771850586,4.685685157775879,0.17788678407669067,0.8760854601860046,-0.1669899970293045,0.4523143470287323,-0.016283392906188965,0.203504279255867,0.13009828329086304,0.4092931547864633,-0.39679268938838863,0.7541304506659341,0.3260702881332257,0.1677760116188709,2.047391007535587,1.0710577817432558
1761597265405790464,8.63679051399231,-2.8615684509277344,4.893734455108643,0.15442992746829987,0.8531463742256165,-0.18152078986167908,0.4890715777873993,-0.019391119480133057,0.23427042365074158,0.13920894265174866,0.38518409216939115,-0.4096063053851049,0.7594461592427099,0.32725720397075725,0.18253271019217648,2.0913192239126146,1.095212949531935
1761597265415836672,8.646836519241333,-2.9758663177490234,5.092985153198242,0.15209068357944489,0.8274040222167969,-0.19763262569904327,0.5256842970848083,-0.029109954833984375,0.23994524776935577,0.14622128009796143,0.35967108859305974,-0.4228644402059277,0.7642171271916423,0.3283208594506072,0.1989423178522906,2.1367978397296277,1.120347867617562
1761597265425882624,8.656882524490356,-3.1409027576446533,5.2863922119140625,0.18351386487483978,0.7986735701560974,-0.21567444503307343,0.5617874264717102,-0.030546128749847412,0.22937685251235962,0.13112938404083252,0.33267392397130163,-0.4364295905377064,0.7683898236086176,0.3292937485036024,0.21738247436462768,2.1838008756820133,1.1462765736656642
1761597265435928576,8.66692852973938,-3.2386045455932617,5.477815628051758,0.1879372000694275,0.7669186592102051,-0.23571047186851501,0.596888542175293,-0.015362441539764404,0.2817310094833374,0.10719764232635498,0.30443667631343196,-0.449736752820354,0.7721276618241497,0.3299604581676773,0.2379495720710648,2.2321613566359604,1.1716004463574958
1761597265445973760,8.676973581314087,-3.2835538387298584,5.7046051025390625,0.1750674843788147,0.7320073843002319,-0.2571200430393219,0.6309158205986023,0.010393798351287842,0.3296450674533844,0.12267011404037476,0.2749603231561811,-0.4630590828442835,0.7752639456957148,0.33005907726467937,0.2600408771932653,2.282157462240154,1.196556521783349
1761597265456019712,8.68701958656311,-3.391456365585327,5.929842472076416,0.20192359387874603,0.6936768889427185,-0.2800816297531128,0.6636015176773071,0.03210747241973877,0.3268955647945404,0.12849754095077515,0.24411073477059986,-0.47632974373593967,0.7777600796083998,0.3295592342191252,0.28387913631582806,2.3340395320467455,1.220987479709652
1761597265466065664,8.697065591812134,-3.437387228012085,6.156113624572754,0.20176193118095398,0.6518355011940002,-0.3047427237033844,0.6944369673728943,0.028645634651184082,0.3637026250362396,0.12375468015670776,0.21184873657840786,-0.48945082072864765,0.779523178475399,0.3284840022631623,0.3096682794691014,2.3878279388050796,1.2447419231970842
1761597265476111616,8.707111597061157,-3.5041351318359375,6.389646053314209,0.2481270283460617,0.6064198017120361,-0.3307875394821167,0.7230734825134277,0.03740960359573364,0.3800734579563141,0.1242017149925232,0.17826469830045832,-0.5023177533512171,0.7805213721462558,0.3266269135710926,0.33713795957194287,2.44371330508636,1.267356595803441
1761597265486157568,8.71715760231018,-3.603511095046997,6.559335708618164,0.27553415298461914,0.5574930906295776,-0.35837623476982117,0.7488442063331604,0.05519300699234009,0.36335062980651855,0.11985379457473755,0.14338686157064942,-0.5147305359602828,0.7806885335551111,0.3240648422222894,0.3665280025298918,2.50163925651264,1.2884889035126348
1761597265496203776,8.727203607559204,-3.9052205085754395,6.751536846160889,0.38400229811668396,0.5054178237915039,-0.38861891627311707,0.770408034324646,0.06588661670684814,0.3468860387802124,0.15241318941116333,0.10699235066966174,-0.5265943924383438,0.7796809436726054,0.32147896878777293,0.39913220941003574,2.5609837005901968,1.3087455708796936
1761597265506249728,8.737249612808228,-4.318511009216309,6.958415985107422,0.42220136523246765,0.4501240849494934,-0.42270374298095703,0.7865812182426453,0.07337445020675659,0.31030750274658203,0.177545428276062,0.06854667098295245,-0.5378661005973969,0.7771683698551505,0.3193912749684969,0.4364266208103528,2.621824676714071,1.3285734295577412
1761597265516294656,8.747294664382935,-4.782514572143555,7.123322010040283,0.4861201345920563,0.39206662774086,-0.46075743436813354,0.7962328791618347,0.09159126877784729,0.26100456714630127,0.2780470848083496,0.027995143377348205,-0.5484852593709943,0.7728391497123288,0.317962197645542,0.4788484177715427,2.684041910245289,1.34797438127458
1761597265526340608,8.757340669631958,-5.0345869064331055,7.292932033538818,0.6319040060043335,0.3315659761428833,-0.5022314190864563,0.7986410856246948,0.0638960599899292,0.2816351056098938,0.3607369661331177,-0.014460251604403607,-0.558003929876309,0.7667803791811064,0.31697057557876585,0.5261772858246182,2.7480837087420475,1.365452308445985
1761597265536386816,8.767386674880981,-5.04770565032959,7.336414813995361,0.7056595087051392,0.2693820595741272,-0.5446548461914062,0.7942196130752563,0.06663176417350769,0.3031997084617615,0.4288640022277832,-0.05785758926265696,-0.566154158705131,0.7593281754759293,0.315504044021022,0.5759775101841706,2.8145908881568933,1.3790173521140126
1761597265546432768,8.777432680130005,-4.9551682472229,7.3294997215271,0.7643630504608154,0.20690177381038666,-0.5860286951065063,0.783429741859436,0.07024361193180084,0.29060328006744385,0.47516095638275146,-0.10119147229509222,-0.5729622569886339,0.7506191540154046,0.31312210221318915,0.6261490006234662,2.8833904559151153,1.3879460204023115
1761597265556478720,8.787478685379028,-4.6400370597839355,7.331294059753418,0.7764840722084045,0.14486131072044373,-0.6246888041496277,0.76731938123703,0.08753003180027008,0.29586195945739746,0.5609276294708252,-0.14382910882177927,-0.5786945636793938,0.740791670097535,0.30927897647532615,0.6747329744726803,2.9549999580802435,1.3919433047817464
1761597265566524672,8.797524690628052,-4.68699312210083,7.102677822113037,0.8132215738296509,0.0846671536564827,-0.6608912944793701,0.745690643787384,0.0847206860780716,0.2838616967201233,0.689261257648468,-0.1853269982328798,-0.5830470506748043,0.7300009933361,0.3046451739728062,0.7220057496691319,3.028534900368145,1.3906114815565525
1761597265576570624,8.807570695877075,-5.009775638580322,6.819150447845459,0.7177550792694092,0.028262730687856674,-0.6968591809272766,0.7166513800621033,0.09904137253761292,0.25320965051651,0.7907341718673706,-0.22598090868591,-0.585794262165391,0.7177539683401327,0.3010102186057452,0.7710089179534738,3.102175870079544,1.3850190756404313
1761597265586615552,8.817615509033203,-5.626887321472168,6.630771160125732,0.6207922697067261,-0.02362869493663311,-0.7340106964111328,0.6787270307540894,0.15529678761959076,0.13742250204086304,0.8935844302177429,-0.26654686246545034,-0.5869640829890603,0.7034462842935256,0.2993148256495914,0.8242087928685187,-3.1067934541674864,1.375536107474921
1761597265596661504,8.827661514282227,-6.081723690032959,6.664034843444824,0.5181531310081482,-0.07165326923131943,-0.7724477648735046,0.6310229897499084,0.12495222687721252,-0.052259206771850586,0.9646646976470947,-0.3079098994178618,-0.5864503244069269,0.6867222957823673,0.2994660414945715,0.8826863957308082,-3.0285259790771883,1.3601460551651663
1761597265606707456,8.83770751953125,-6.3201704025268555,6.688514709472656,0.4177524447441101,-0.11591985821723938,-0.8096675872802734,0.5753270983695984,0.03794743865728378,-0.2425786256790161,1.0349786281585693,-0.349806567604441,-0.5850535970351927,0.6673648466957854,0.2999531612874189,0.9435854699217906,-2.9427694840028993,1.3378495519888243
1761597265616753664,8.847753524780273,-6.098398685455322,6.771576881408691,0.375946968793869,-0.15605126321315765,-0.8433100581169128,0.5142726898193359,-0.08894382417201996,-0.3134130835533142,1.0918521881103516,-0.3909148885024443,-0.5822900012144814,0.6465869530386054,0.30008215099505936,1.0034128829831448,-2.8469822447889928,1.3038275168009348
1761597265626799616,8.857799530029297,-5.61305570602417,6.7750091552734375,0.20996065437793732,-0.1916089951992035,-0.8712202310562134,0.45195308327674866,-0.1795000433921814,-0.25345945358276367,1.2494325637817383,-0.4301090163782018,-0.5794167321512435,0.6247021656037361,0.29837857502193676,1.057682552485779,-2.74060517951822,1.2592088625504465
1761597265636845568,8.86784553527832,-5.209146976470947,6.771970748901367,-0.12970414757728577,-0.22071975469589233,-0.8939607739448547,0.3900222182273865,-0.16462571918964386,-0.3095763325691223,1.2604753971099854,-0.46687840681359744,-0.5775009577308974,0.6012518215086345,0.2949806671596048,1.1061068786508392,-2.626612162201905,1.2082010011280389
1761597265646891520,8.877891540527344,-4.959158420562744,6.851917266845703,-0.541561484336853,-0.24219545722007751,-0.9130621552467346,0.32811468839645386,-0.10643739998340607,-0.4427577257156372,1.2360180616378784,-0.501363715536798,-0.5764977911170077,0.5759406567698899,0.29082162126393996,1.1507306065255438,-2.5057235264757547,1.1511910659403444
1761597265656936704,8.88793659210205,-4.943135738372803,7.0102667808532715,-0.8702855706214905,-0.25631222128868103,-0.9295514822006226,0.2650253474712372,-0.13142886757850647,-0.590620756149292,1.2336013317108154,-0.5343300587819312,-0.5759381544287928,0.5484595834040612,0.2863195027698109,1.1931944741480993,-2.3729059322914736,1.0835103500448704
1761597265666982656,8.897982597351074,-4.801641464233398,7.228355884552002,-1.2484052181243896,-0.2630526125431061,-0.9437559843063354,0.20031975209712982,-0.2477048635482788,-0.6941529512405396,1.276242733001709,-0.5661613945081634,-0.5755315595028833,0.5185781556616261,0.2816051015690915,1.2338118299097156,-2.2216293916285617,0.9990043843548134
1761597265677028608,8.908028602600098,-4.943655014038086,7.438205242156982,-1.5612200498580933,-0.26174604892730713,-0.9556925892829895,0.13468632102012634,-0.39178788661956787,-0.7560229897499084,1.3040496110916138,-0.5967807297319654,-0.5754435664109577,0.48601220101331477,0.2766034902403076,1.2720037314802244,-2.0460308480413714,0.8924771767375658
1761597265687074560,8.918074607849121,-5.079531192779541,7.654930591583252,-1.9932571649551392,-0.25245532393455505,-0.9653158783912659,0.06657066941261292,-0.5510877370834351,-0.7726601958274841,1.276736855506897,-0.6267160952565706,-0.5745810167206225,0.45071275969619223,0.27192210968269614,1.3066505256954646,-1.8286203244036454,0.7455100444589169
1761597265697120768,8.928120613098145,-5.034111022949219,7.962862491607666,-2.469822406768799,-0.23324742913246155,-0.9724158048629761,-0.0018345582066103816,-0.6585982441902161,-0.7706263065338135,1.3147464990615845,-0.6553413764572467,-0.573866195801027,0.4120197935044708,0.2672921072823306,1.3353735037071646,-1.5629312011455756,0.5531920541018928
1761597265707166720,8.938166618347168,-4.8308916091918945,8.236289978027344,-2.86397385597229,-0.20427003502845764,-0.9765406250953674,-0.0681350827217102,-0.8323663473129272,-0.8714514374732971,1.4541823863983154,-0.6820564941131586,-0.5733827796895357,0.3703574576724555,0.26242450627240915,1.353763339465477,-1.248847200697895,0.3151102711168285
1761597265717212672,8.948212623596191,-4.418039798736572,8.378297805786133,-3.5250513553619385,-0.16478896141052246,-0.9778372645378113,-0.1291457861661911,-0.971609354019165,-0.9195625185966492,1.470149278640747,-0.7058795308760407,-0.5737098891166553,0.3260123769404943,0.2575011987377878,1.359869509769626,-0.9060711810717504,0.05038004362411449
1761597265727257856,8.958257675170898,-4.041495323181152,8.447372436523438,-4.20815896987915,-0.11360680311918259,-0.9766780138015747,-0.18219125270843506,-1.0663706064224243,-0.9728306531906128,1.48141610622406,-0.7258218401838211,-0.5752802160628053,0.27920788725934476,0.2535317157828068,1.3544021441365741,-0.5575616539772612,-0.21969551720094907
1761597265737303808,8.968303680419922,-3.5274534225463867,8.507672309875488,-5.018143653869629,-0.05105932429432869,-0.9726021885871887,-0.2267991602420807,-1.2455867528915405,-1.0070730447769165,1.5021440982818604,-0.7419319493479587,-0.5777598804422233,0.22976931753667218,0.2508715813625873,1.3361740096881107,-0.22143830129475198,-0.47711132886295476
1761597265747349760,8.978349685668945,-2.6906380653381348,8.489911079406738,-5.920745372772217,0.023028122261166573,-0.9657912850379944,-0.25829610228538513,-1.4489619731903076,-1.0318588018417358,1.5226393938064575,-0.7528220086749507,-0.5823920879906952,0.17796461621861243,0.2498140749077325,1.3084776530549973,0.08891887382949537,-0.7090178885480098
1761597265757395712,8.988395690917969,-1.8705819845199585,8.237178802490234,-6.848781585693359,0.10708234459161758,-0.9554590582847595,-0.27501150965690613,-1.6937522888183594,-1.1384587287902832,1.5557427406311035,-0.7579175361670824,-0.5890542105199313,0.12453669891680293,0.2511309131190446,1.2712113739019342,0.37131267105730464,-0.9152855372447081
1761597265767441664,8.998441696166992,-0.877621054649353,7.956435203552246,-8.087989807128906,0.20065230131149292,-0.9400851726531982,-0.2756422162055969,-1.8980705738067627,-1.0996639728546143,1.5704267024993896,-0.7565064786660414,-0.5977701351959764,0.06964021611854686,0.2559669939940718,1.222879981080082,0.6292356830010869,-1.1011366533664169
1761597265777487872,9.008487701416016,0.10097570717334747,7.461935520172119,-9.385200500488281,0.30306756496429443,-0.9168694019317627,-0.25980862975120544,-2.107785701751709,-0.98948734998703,1.6741000413894653,-0.7478840755725538,-0.6082067418975016,0.013425413082040781,0.26565709833753404,1.1601659997672777,0.8621007628379143,-1.2680317854021004
1761597265787533824,9.018533706665039,0.9991776347160339,6.588974952697754,-10.603537559509277,0.4108971059322357,-0.8823257088661194,-0.2294885516166687,-2.335533857345581,-0.9125198721885681,1.750072717666626,-0.7319073254932447,-0.6192104065083059,-0.04282749870886316,0.28116904021068995,1.0807811834885763,1.061445962450348,-1.4106597451819478
1761597265797578496,9.028578519821167,2.1374082565307617,5.634052276611328,-11.803815841674805,0.5203380584716797,-0.8330562114715576,-0.1877918839454651,-2.5105419158935547,-0.7892429828643799,1.8530292510986328,-0.7085439503613193,-0.6297099295387383,-0.09782363999381413,0.30308668126579946,0.9846096870467383,1.2244410591129102,-1.5288313395570339
1761597265807624704,9.03862452507019,3.4399633407592773,4.185238838195801,-13.025036811828613,0.628243625164032,-0.7659511566162109,-0.13648808002471924,-2.705986976623535,-0.5797215700149536,1.9989606142044067,-0.6766728689540085,-0.6396915491303242,-0.15016883884482576,0.33220171715437996,0.872519483632259,1.3568672961328125,-1.6316934715740505
1761597265817670656,9.048670530319214,4.3064069747924805,2.014812707901001,-14.150964736938477,0.7304819226264954,-0.6773985624313354,-0.0867612287402153,-2.9466073513031006,-0.23324596881866455,2.2369840145111084,-0.6373650287956428,-0.6462059631923305,-0.19757844085790768,0.3703329852782866,0.7442204095965635,1.4525775712441498,-1.7201477080358487
1761597265827716608,9.058716535568237,5.785233497619629,-0.08993270993232727,-15.246390342712402,0.8232389688491821,-0.5656269788742065,-0.04841058701276779,-3.0797698497772217,0.18269246816635132,2.230783700942993,-0.5910736662752002,-0.6472202773112562,-0.23853850795106865,0.41813530638221974,0.6011933437134509,1.5120589469168269,-1.8001216738447252
1761597265837762560,9.06876254081726,7.432122707366943,-2.606710195541382,-15.716729164123535,0.9008685350418091,-0.4332779347896576,-0.0265737883746624,-3.2497148513793945,0.2766006886959076,1.903236985206604,-0.5364442083222075,-0.6431463567559673,-0.27032548866282874,0.4748836924043379,0.44812667738384043,1.5413069131250823,-1.8847208027649363
1761597265847808512,9.078808546066284,8.568957328796387,-5.595183372497559,-15.490869522094727,0.9565361142158508,-0.28942373394966125,-0.035671841353178024,-3.7951135635375977,0.5672252178192139,1.6807676553726196,-0.47662690048253986,-0.631132200937779,-0.2895448580771854,0.539131394943652,0.2936247390673891,1.533520873222655,-1.976735267181108
1761597265857854720,9.088854551315308,8.882676124572754,-8.046825408935547,-14.674095153808594,0.9856323003768921,-0.14668892323970795,-0.0837327241897583,-4.407400608062744,1.2497162818908691,1.4412003755569458,-0.4157887620818947,-0.6087352626453234,-0.29593076333406915,0.6074421561964582,0.14722014728692728,1.4860465065720465,-2.076391681760339
1761597265867899648,9.098899602890015,8.305027961730957,-9.612919807434082,-13.055095672607422,0.9861224293708801,-0.019540103152394295,-0.16486544907093048,-4.9241108894348145,1.5442593097686768,1.2738285064697266,-0.3589415027093794,-0.5761704049719718,-0.2925661339006813,0.6734936016946429,0.019541347111882514,1.4051428081291717,-2.17881345474886
1761597265877945600,9.108945608139038,8.257196426391602,-10.313103675842285,-11.06541919708252,0.960732638835907,0.08090284466743469,-0.26541969180107117,-5.460122108459473,1.6924431324005127,1.1228415966033936,-0.307691930562417,-0.5372232636864975,-0.28050189844873874,0.7335090716611286,-0.08099136410360225,1.301251628235226,-2.285557789247644
1761597265887991552,9.118991613388062,8.590516090393066,-10.384242057800293,-8.697123527526855,0.9160244464874268,0.14739924669265747,-0.37305840849876404,-5.736505031585693,1.6501318216323853,0.6802331209182739,-0.26207203272804835,-0.49626148535270154,-0.2592206242580259,0.7860326756256623,-0.14793828208289614,1.1840486313458982,-2.3983647697677286
1761597265898037760,9.129037618637085,8.816637992858887,-10.19803237915039,-6.029878616333008,0.8598757386207581,0.1758074313402176,-0.47927597165107727,-5.760159492492676,1.9820141792297363,-0.14274859428405762,-0.2240138207689928,-0.45603486145812705,-0.22889784772620386,0.8303347136428357,-0.17672591755282938,1.062306140121096,-2.5105674601057344
1761597265908083712,9.139083623886108,8.791264533996582,-9.838294982910156,-3.6134514808654785,0.7981362342834473,0.16899321973323822,-0.5782904028892517,-5.338510990142822,2.467618703842163,-1.1189751625061035,-0.19481539121681343,-0.41743455175987354,-0.19131963513663086,0.8667133546589149,-0.16980810234318425,0.9437825130520111,-2.6125768489451766
1761597265918129664,9.149129629135132,9.021389961242676,-9.098956108093262,-1.8177295923233032,0.7349210381507874,0.13398703932762146,-0.6647844910621643,-4.315136432647705,2.6370396614074707,-1.501810908317566,-0.1732265261531458,-0.38149222178225006,-0.1485645664736682,0.8957592812040915,-0.13439120859152803,0.8354643532055183,-2.699815970585179
1761597265928175616,9.159175634384155,9.49843692779541,-9.428182601928711,-0.7320208549499512,0.6691280603408813,0.07788581401109695,-0.7390544414520264,-3.134673595428467,2.613215208053589,-1.4639942646026611,-0.1564273600287745,-0.3466976077837292,-0.1013585546523509,0.91927020519218,-0.07796477653526168,0.7357817466262198,-2.774428551802982
1761597265938220800,9.169220685958862,10.10731315612793,-9.732237815856934,0.17486152052879333,0.5941395163536072,0.003351458813995123,-0.8043550252914429,-2.342064380645752,2.9001214504241943,-1.8589903116226196,-0.14269441577813732,-0.30894627564071947,-0.04873075470457773,0.9390504624983541,-0.0033514651418046215,0.6361995874310135,-2.8388842200364346
1761597265948266752,9.179266691207886,12.603955268859863,-10.286735534667969,1.078108787536621,0.510452926158905,-0.09260804951190948,-0.8549044132232666,-1.5558478832244873,2.893129825592041,-0.3824002742767334,-0.1304750131283917,-0.26909135171520404,0.01173208138764871,0.9541637515803989,0.09274093400465612,0.5382753820108029,-2.895390483069048
1761597265958312704,9.18931269645691,15.342604637145996,-10.972126007080078,2.523751974105835,0.4143020212650299,-0.22490298748016357,-0.8819140791893005,-0.7746230959892273,2.8275489807128906,1.6876850128173828,-0.11877380621864415,-0.22613877793285522,0.08890560910883684,0.9627303889874979,0.22684347446659528,0.4391773610850448,-2.9469254726284873
1761597265968358656,9.199358701705933,15.772878646850586,-9.849803924560547,3.5196781158447266,0.3114682734012604,-0.37496599555015564,-0.8731483221054077,-0.993200421333313,2.9899866580963135,2.1284432411193848,-0.11058460686886046,-0.18200375227121987,0.17407030372177706,0.9614287216822018,0.3843601047320898,0.34264765482646004,-2.9798644533923095
1761597265978404864,9.209404706954956,13.901628494262695,-6.788031578063965,4.6413469314575195,0.22163330018520355,-0.5130154490470886,-0.8292731046676636,-1.6963647603988647,2.4979703426361084,2.059741973876953,-0.10887308710393788,-0.14565251779728705,0.2532761294306562,0.9501490852999956,0.5386940675208511,0.2611582530890759,-2.9858922239969585
1761597265988450816,9.21945071220398,13.293221473693848,-5.224039554595947,6.433725833892822,0.1425950974225998,-0.6310291290283203,-0.7625411152839661,-2.6860673427581787,1.1393299102783203,1.3128340244293213,-0.11742579126630687,-0.11739317543270628,0.32395724089322264,0.9313870582583642,0.6828791151875162,0.18486477697686501,-2.956620544007632
1761597265998496768,9.229496717453003,12.827508926391602,-4.1525492668151855,8.676607131958008,0.05570656433701515,-0.7340747117996216,-0.6767799854278564,-2.9808621406555176,1.0622912645339966,0.35575032234191895,-0.13727424615928244,-0.0901728313162566,0.3917637758707982,0.9052877442472507,0.8243030811446806,0.08212604672351516,-2.8765346351297816
1761597266008541696,9.23954153060913,12.020105361938477,-2.554440498352051,9.745424270629883,-0.03810884431004524,-0.8134163022041321,-0.5804322957992554,-2.7265396118164062,1.5444800853729248,-0.46064436435699463,-0.16845594567045302,-0.06565426245801435,0.45329169315312207,0.8728337910482135,0.9500013940954435,-0.06556186733074194,-2.726557646477717
1761597266018587648,9.249587535858154,10.741180419921875,-1.358126163482666,10.020956993103027,-0.13215555250644684,-0.8662248849868774,-0.48186036944389343,-2.7741706371307373,1.630064606666565,-0.3945586681365967,-0.20365570367021893,-0.0444613002981161,0.5070433941037306,0.8363340536611872,1.047596699898035,-0.2676791355341276,-2.5086372680476896
1761597266028633600,9.259633541107178,8.051681518554688,0.14858295023441315,10.030767440795898,-0.22398042678833008,-0.8899147510528564,-0.39734697341918945,-3.32576322555542,1.2430946826934814,-0.6104655265808105,-0.2418366451038485,-0.025765436840208673,0.5483271473533553,0.8001178601626141,1.0971582164567533,-0.5132928112117319,-2.236486054387658
1761597266038679552,9.269679546356201,4.649537086486816,1.401005506515503,9.70672607421875,-0.3089432716369629,-0.887356162071228,-0.3422764837741852,-3.7504897117614746,0.7306636571884155,-0.6634760499000549,-0.2821949390084402,-0.009536966801258713,0.5733853927845884,0.7690932054307023,1.0915792464710397,-0.734257007611915,-1.9793729261327644
1761597266048725504,9.279725551605225,1.5076273679733276,2.6629061698913574,10.216609954833984,-0.389772891998291,-0.8624458909034729,-0.3228995203971863,-4.070523738861084,0.14903652667999268,-0.48949363827705383,-0.32580567244489683,0.007153283956617849,0.5818067273765999,0.7451848106629113,1.0400823488708102,-0.8789588682057857,-1.791295185448783
1761597266058771712,9.289771556854248,0.04701540619134903,3.2454495429992676,9.927839279174805,-0.4657352864742279,-0.8208680748939514,-0.3305543065071106,-3.9564294815063477,-0.6815427541732788,-0.5737272500991821,-0.37223357153060677,0.02439188714675848,0.5780379593359786,0.7257542459686543,0.9629292733208831,-0.953558554650847,-1.6665944857194444
1761597266068817664,9.299817562103271,0.05555297061800957,3.0065345764160156,9.200276374816895,-0.5315381288528442,-0.7730897068977356,-0.3461206257343292,-3.3900318145751953,-0.9519316554069519,-0.6027624607086182,-0.4155927684209998,0.04062978444575562,0.5703410472073145,0.707349237207734,0.8836978923596405,-0.9936004493035991,-1.5770827729671277
1761597266078862592,9.309862613677979,0.15966123342514038,2.976079225540161,8.913543701171875,-0.5888767242431641,-0.722655713558197,-0.36192962527275085,-3.0299434661865234,-0.20350706577301025,-0.5929501056671143,-0.4558422052504122,0.05555128134589403,0.5620936227314385,0.6878755600564894,0.8076367467196901,-1.019703258991622,-1.5020472065778154
1761597266088908800,9.319908618927002,0.11812017858028412,2.849036455154419,8.419097900390625,-0.6387956142425537,-0.6695564389228821,-0.37899118661880493,-2.869245767593384,-0.19097822904586792,-0.5904149413108826,-0.4936023678941837,0.06964733822948374,0.5528595274244104,0.6677217249535647,0.7336114662581991,-1.0353251128558212,-1.4376636998474652
1761597266098954752,9.329954624176025,0.06409216672182083,2.866196632385254,7.983921051025391,-0.6806748509407043,-0.6155790686607361,-0.39717042446136475,-2.950382947921753,-0.1568361520767212,-0.5594488978385925,-0.5285223617452638,0.08258553296758546,0.5427655259832075,0.6474947778628732,0.663120565833337,-1.0426011965841357,-1.3820557071206303
1761597266109000704,9.340000629425049,-0.11788802593946457,3.178668737411499,7.7602338790893555,-0.7147146463394165,-0.5604425072669983,-0.4184342920780182,-2.895331859588623,-0.07017272710800171,-0.7503736615180969,-0.5617528368671056,0.09418364885604692,0.5309541309532299,0.6274161173310546,0.5949199927059067,-1.0411392589580994,-1.3331659892919558
1761597266119046656,9.350046634674072,-0.6611769199371338,3.5604000091552734,7.55708646774292,-0.741195023059845,-0.5024820566177368,-0.4451310336589813,-2.7363438606262207,-0.3411458134651184,-1.0749037265777588,-0.5943624502655489,0.10501984800549971,0.5161446701164107,0.6076995488452921,0.5264671883553592,-1.0299662316899445,-1.2903022419777879
1761597266129092608,9.360092639923096,-1.2395408153533936,4.0596604347229,7.095860004425049,-0.7583220601081848,-0.4430491328239441,-0.478179007768631,-2.71415114402771,-0.5569813847541809,-1.4382638931274414,-0.6254112838580539,0.11515915600455673,0.4976433094460712,0.5898731150860189,0.45899700437969504,-1.008197991926782,-1.255999864991066
1761597266139137792,9.370137691497803,-1.9114124774932861,4.742188930511475,6.958235740661621,-0.7653931975364685,-0.3811618685722351,-0.5185449719429016,-2.791842460632324,-0.6986568570137024,-1.7307378053665161,-0.6558058834879129,0.12457815300114156,0.4745606258516056,0.5737518062747108,0.391052705518004,-0.9753391344839387,-1.2281944532379299
1761597266149183744,9.380183696746826,-2.114893913269043,4.951588153839111,6.501699924468994,-0.7625757455825806,-0.3181866705417633,-0.5632365942001343,-2.691709041595459,-1.3257951736450195,-1.9649310111999512,-0.6849808959570902,0.13324024141549,0.4479160053953427,0.5589448901198902,0.3238161488415825,-0.9346327949120045,-1.2043761176871888
1761597266159229696,9.39022970199585,-1.9566658735275269,4.961556434631348,6.008616924285889,-0.7515032291412354,-0.2586256265640259,-0.6069231033325195,-2.6050641536712646,-1.2906450033187866,-1.910487174987793,-0.7117086465739494,0.14029253930115382,0.4205430378019463,0.5449150235248601,0.261599136624655,-0.8914310725818145,-1.1813360573952179
1761597266169275648,9.400275707244873,-1.829798698425293,4.924624443054199,5.668471813201904,-0.7338316440582275,-0.20304295420646667,-0.6482782363891602,-2.411325216293335,-1.120229721069336,-1.6803655624389648,-0.7362463551860142,0.14576269890905375,0.39321000110372684,0.5311124695778284,0.20446461675699296,-0.8472198410785075,-1.1574093399887018
1761597266179321856,9.410321712493896,-1.5025359392166138,4.95961856842041,5.332942485809326,-0.7103971838951111,-0.15186242759227753,-0.6872217059135437,-2.151052951812744,-1.180687665939331,-1.4416539669036865,-0.758924939844286,0.14951611083283944,0.36610665410383464,0.5173430075271438,0.15245227993344423,-0.8019787531586156,-1.1319108988308035
1761597266189367808,9.42036771774292,-0.9599691033363342,4.8653035163879395,5.126179218292236,-0.6821879148483276,-0.10663443803787231,-0.7233594059944153,-1.9432851076126099,-1.1256349086761475,-1.246199369430542,-0.7800971242868462,0.15088909086436336,0.3399305662509214,0.5031185229811453,0.10683756650786772,-0.7561144045511006,-1.103158868787609
1761597266199413760,9.430413722991943,-0.547571063041687,4.831490993499756,5.114664077758789,-0.6500219106674194,-0.06637485325336456,-0.7570111751556396,-1.816027283668518,-1.076737403869629,-1.1600725650787354,-0.8004103975907697,0.1501908171735791,0.3145427104210873,0.48769758410832326,0.06642369052603811,-0.7095052760101828,-1.0698604978324069
1761597266209458688,9.440458536148071,-0.22089730203151703,4.790839195251465,4.896416664123535,-0.6149683594703674,-0.031369999051094055,-0.7879275679588318,-1.7847051620483398,-1.1646291017532349,-1.151357650756836,-0.8195657760303418,0.1477822813447612,0.2901665163980264,0.4714613576520753,0.03137514670615836,-0.6627298982493499,-1.0332602015164445
1761597266219504640,9.450504541397095,0.014446144923567772,4.782581806182861,4.586235523223877,-0.5771771669387817,-0.0022494052536785603,-0.816615879535675,-1.8473223447799683,-1.1312192678451538,-1.1593056917190552,-0.8372124323305083,0.14365148908340591,0.26656387034304696,0.4553937298565579,0.0022494070511411605,-0.6152694627219764,-0.9956436147353375
1761597266229550592,9.460550546646118,0.07694600522518158,4.910599231719971,4.334784507751465,-0.5362750291824341,0.0222882479429245,-0.843748927116394,-1.8644360303878784,-1.092539668083191,-1.1325236558914185,-0.8534835815794292,0.13824347790658978,0.2429285157175179,0.4398183309616659,-0.022290094409110128,-0.5661755351936186,-0.9581432594997749
1761597266239596544,9.470596551895142,0.0728081539273262,5.052956581115723,4.062017917633057,-0.4919741749763489,0.04336952790617943,-0.8695288896560669,-1.8318936824798584,-1.1906321048736572,-1.091164469718933,-0.8684395016458546,0.13197186467304176,0.21867551728992762,0.4249438471042675,-0.043383136868036576,-0.5148881610476302,-0.9215563871614142
1761597266249642496,9.480642557144165,0.13932938873767853,5.161031723022461,3.8002257347106934,-0.4446896016597748,0.06098173186182976,-0.893606424331665,-1.8057986497879028,-1.2088088989257812,-1.0073487758636475,-0.8820303173784639,0.12489587959339436,0.19390156942713355,0.4108841708561013,-0.06101959305278198,-0.46175362600652226,-0.8862427225259409
1761597266259688704,9.490688562393188,0.3096045255661011,5.242069244384766,3.6040093898773193,-0.39476755261421204,0.07461849600076675,-0.9157459735870361,-1.7464220523834229,-1.1487456560134888,-0.8881022930145264,-0.894412407364049,0.11672048743388708,0.1688293365684187,0.39736579506779385,-0.07468791624327921,-0.4070163479037236,-0.8515869411206838
1761597266269734656,9.500734567642212,0.6296853423118591,5.20633602142334,3.5104997158050537,-0.34321901202201843,0.08344240486621857,-0.935541570186615,-1.6675078868865967,-1.0703351497650146,-0.7768301963806152,-0.9057547811983748,0.1071225291208228,0.14406236187856944,0.38389999751939075,-0.08353953959871739,-0.35162107601287435,-0.8166333748477043
1761597266279779584,9.510779619216919,0.9444476962089539,5.063419342041016,3.3930931091308594,-0.29151517152786255,0.08702414482831955,-0.9525994658470154,-1.6021311283111572,-0.9573091864585876,-0.6726751923561096,-0.9161168960824895,0.09609545585195729,0.120274430244721,0.3701750856107974,-0.08713436439876551,-0.29697119047992293,-0.781061852369034
1761597266289825792,9.520825624465942,1.2877658605575562,4.91275691986084,3.224025011062622,-0.2405112087726593,0.0850590392947197,-0.9669122695922852,-1.535978078842163,-0.8306339979171753,-0.6185522079467773,-0.9253909268159293,0.0836134651047473,0.09773769827658256,0.35652181603850147,-0.08516194354561858,-0.2437938431441958,-0.7459202044772202
1761597266299871744,9.530871629714966,1.5952092409133911,4.681336879730225,3.0062198638916016,-0.1909981071949005,0.07761937379837036,-0.978516697883606,-1.4889793395996094,-0.7683389782905579,-0.5263507962226868,-0.9335233004553314,0.06975519296908136,0.0766541321716465,0.34320931154247797,-0.07769752390755899,-0.19276771169491727,-0.7121374578813935
1761597266309917696,9.54091763496399,1.7032251358032227,4.5123610496521,2.788043260574341,-0.14354358613491058,0.06613123416900635,-0.9874319434165955,-1.4529682397842407,-0.7204586267471313,-0.44018030166625977,-0.9404957711107298,0.05516022542819978,0.05693297499439694,0.3304296207715644,-0.0661795323322003,-0.14435938206711318,-0.6805151838667098
1761597266319963648,9.550963640213013,1.7042568922042847,4.365893363952637,2.5455470085144043,-0.09776701778173447,0.05231866613030434,-0.9938331842422485,-1.4003256559371948,-0.6771966218948364,-0.38432538509368896,-0.9463035002137546,0.040447556965501806,0.03804485009439176,0.3184749685325981,-0.05234256218443226,-0.09805816910473393,-0.6518478873708016
1761597266330009600,9.561009645462036,1.64078950881958,4.283982276916504,2.303393840789795,-0.053440798074007034,0.03753746300935745,-0.9978652596473694,-1.352595567703247,-0.6309670209884644,-0.3385452628135681,-0.9510258326599774,0.026090713241924194,0.019663647166602,0.307379962919375,-0.03754628332118654,-0.053504012109403226,-0.626226793912426
1761597266340054784,9.571054697036743,1.7507297992706299,4.138668060302734,1.9814178943634033,-0.010410952381789684,0.021258708089590073,-0.9997197985649109,-1.2889817953109741,-0.5209687948226929,-0.2419489026069641,-0.9546754187512286,0.011697400682709727,0.0018084833787358808,0.29741323160630556,-0.021260309594682086,-0.010413494260542501,-0.6041185916770251
1761597266350100736,9.581100702285767,1.8426644802093506,3.8712570667266846,1.7190313339233398,0.030024979263544083,0.0029403106309473515,-0.9995447993278503,-1.2182116508483887,-0.379801869392395,-0.17031598091125488,-0.9572894764141846,-0.0029279689503043807,-0.014799155472761057,0.28873736635007624,-0.002940314860756029,0.030029622604825508,-0.5858400386738893
1761597266360146688,9.59114670753479,1.7457690238952637,3.66947078704834,1.5378011465072632,0.06774510443210602,-0.016027027741074562,-0.9975739121437073,-1.1252402067184448,-0.2778725028038025,-0.08265680074691772,-0.9591030756222252,-0.017221683394122046,-0.03027294652571567,0.2809061000902626,0.016027714539291592,0.06780575202510179,-0.5703751669013077
1761597266370192640,9.601192712783813,1.5760101079940796,3.4720985889434814,1.298947811126709,0.10315219312906265,-0.0338083915412426,-0.9940908551216125,-1.0153378248214722,-0.2188008576631546,0.01819974184036255,-0.9602082678732003,-0.030450492409900887,-0.045026023629718005,0.2739441969498431,0.033814837231375815,0.10339532195742591,-0.5575768199862936
1761597266380238848,9.611238718032837,1.4450716972351074,3.212205171585083,1.057111382484436,0.13597336411476135,-0.05026732385158539,-0.9894364476203918,-0.9336265325546265,-0.1641034036874771,0.08344584703445435,-0.9606621226179651,-0.04259320021434598,-0.058886388654494894,0.2680417712747335,0.050288517801803996,0.13656961210981056,-0.5476351924044865
1761597266390284800,9.62128472328186,1.323087453842163,2.9809505939483643,0.8228888511657715,0.16614961624145508,-0.06548194587230682,-0.9839239716529846,-0.8345150947570801,-0.12723655998706818,0.11267763376235962,-0.9605648309844218,-0.05374760472347411,-0.07175792918514957,0.26320554387369266,0.0655288351808102,0.1672861360495255,-0.5403892233818601
1761597266400330752,9.631330728530884,1.125617265701294,2.7550735473632812,0.5864925980567932,0.1939370185136795,-0.07886146754026413,-0.9778391122817993,-0.7490212321281433,-0.06116843968629837,0.16546118259429932,-0.9599988430993114,-0.06371935874073836,-0.08378720416843244,0.25946416882455553,0.07894343801754576,0.19579143222363896,-0.5356941384263683
1761597266410375680,9.641375541687012,0.9846543669700623,2.5784969329833984,0.36945879459381104,0.21960484981536865,-0.09005860984325409,-0.9714232683181763,-0.6978000402450562,0.02504090964794159,0.19591057300567627,-0.959069362679087,-0.07240768176839027,-0.09510780531525455,0.25670536086985346,0.09018079544270251,0.22232793627049954,-0.5331338823175827
1761597266420421632,9.651421546936035,0.9998969435691833,2.338273763656616,0.04543331265449524,0.24337472021579742,-0.10028272867202759,-0.9647341966629028,-0.6221131086349487,0.09849745035171509,0.2211276888847351,-0.9577093146970534,-0.08050280410552413,-0.10560392460345648,0.2552643971824971,0.10045157594043297,0.2471151813681399,-0.5334469568014942
1761597266430467584,9.661467552185059,0.9428943395614624,2.070065975189209,-0.2599652111530304,0.2646961808204651,-0.1094517707824707,-0.9581003189086914,-0.5629139542579651,0.1497349739074707,0.2628946304321289,-0.9559346993378761,-0.08796140573152389,-0.11494618378016486,0.2554193130811728,0.10967148886920906,0.2695482778447426,-0.5370736108157638
1761597266440513536,9.671513557434082,0.7433419227600098,1.9917945861816406,-0.49499255418777466,0.28454113006591797,-0.11662082374095917,-0.9515439867973328,-0.523280143737793,0.16610507667064667,0.25977152585983276,-0.9538478645266744,-0.09444248317545757,-0.12372805763527794,0.25679986381863207,0.1168868048145637,0.29056754337072477,-0.5431003431520258
1761597266450559744,9.681559562683105,0.5147407054901123,1.9985883235931396,-0.7455983757972717,0.30429327487945557,-0.12070406228303909,-0.9449000954627991,-0.5100275278091431,0.1564401537179947,0.2866511940956116,-0.9514629861379689,-0.09959823496079347,-0.13277860649342524,0.25916828574197515,0.1209990979449179,0.31155010103630215,-0.550900025145708
1761597266460605696,9.691605567932129,0.47338545322418213,1.9756546020507812,-0.9568153023719788,0.3241848349571228,-0.12255165725946426,-0.9380220174789429,-0.5474819540977478,0.18653175234794617,0.32144486904144287,-0.9487304373559781,-0.1039082354483839,-0.1420988275848464,0.26252909224786347,0.12286051626661958,0.3327538520479466,-0.560579235370831
1761597266470651648,9.701651573181152,0.5107479691505432,1.8668423891067505,-1.148074984550476,0.34355390071868896,-0.12365106493234634,-0.9309570789337158,-0.5608848333358765,0.21935418248176575,0.2949554920196533,-0.9456513212702148,-0.10803793806530854,-0.151159691922997,0.2668746260488634,0.12396834873899794,0.3535290938316448,-0.5722901430373482
1761597266480696576,9.71169662475586,0.5909915566444397,1.7484793663024902,-1.3517625331878662,0.3619424104690552,-0.12438999861478806,-0.9238640666007996,-0.5503884553909302,0.26213109493255615,0.29263848066329956,-0.9422371216579333,-0.11214120683815955,-0.15966314032497883,0.27225198867187356,0.12471303369645612,0.3733916511127894,-0.5861498440006377
1761597266490742784,9.721742630004883,0.5989816188812256,1.6693917512893677,-1.5178303718566895,0.3794702887535095,-0.1245628148317337,-0.9167804718017578,-0.533996045589447,0.281377375125885,0.3464984893798828,-0.9385123703113636,-0.11613302802705427,-0.1676988245334071,0.27854026521816827,0.12488720402148243,0.39244525168268446,-0.6018730112640028
1761597266500788736,9.731788635253906,0.5824519991874695,1.590103268623352,-1.703199028968811,0.3964199125766754,-0.12385524809360504,-0.9096763730049133,-0.529629111289978,0.26873743534088135,0.41133958101272583,-0.9344702911161574,-0.11990597736376633,-0.17545473910053996,0.28566313568843815,0.12417411043799387,0.4109669143545135,-0.6192600049745388
1761597266510834688,9.74183464050293,0.21015694737434387,1.6399322748184204,-1.8278006315231323,0.4130946099758148,-0.12044622004032135,-0.9026879668235779,-0.5473566651344299,0.25676825642585754,0.4619225859642029,-0.9302087873178638,-0.1225752141625216,-0.1833884822829877,0.29335229559316367,0.12073936062661708,0.4291786040444782,-0.6373248335547685
1761597266520880640,9.751880645751953,0.0579528734087944,1.8529456853866577,-1.9905864000320435,0.43111175298690796,-0.11329111456871033,-0.8951579332351685,-0.5679678916931152,0.2688697278499603,0.5019695162773132,-0.925661065438625,-0.123855913889951,-0.19256359365559303,0.3012149760941348,0.11353487467938245,0.44882289591537383,-0.6551381753410377
1761597266530926592,9.761926651000977,0.12512578070163727,1.9012192487716675,-2.1225991249084473,0.4502805173397064,-0.10509569942951202,-0.8866804838180542,-0.5724729299545288,0.26366502046585083,0.468254029750824,-0.9205502587443136,-0.12519736298755949,-0.20244842579380723,0.30972142988747847,0.10529013142085038,0.46988977403862564,-0.6743350579642843
1761597266540972800,9.77197265625,0.143955260515213,1.8128727674484253,-2.12218976020813,0.4688609838485718,-0.09642741829156876,-0.8779926896095276,-0.5857127904891968,0.27786967158317566,0.3648396134376526,-0.915180179767652,-0.12650750894839918,-0.21213089162506377,0.3184989029715639,0.09657748009175533,0.4904876416877252,-0.694004716886261
1761597266551017728,9.782017707824707,0.21722574532032013,1.8339321613311768,-2.179466724395752,0.48676592111587524,-0.08771681785583496,-0.8691172003746033,-0.587824821472168,0.44275832176208496,0.28208106756210327,-0.9096173367672418,-0.1279369928566996,-0.22152545226676826,0.32734521144167356,0.08782969839707193,0.5105411165456245,-0.7138174557771201
1761597266561063680,9.79206371307373,0.29299217462539673,1.840049386024475,-2.2708699703216553,0.5045977234840393,-0.07891789078712463,-0.859740138053894,-0.5808916687965393,0.49963319301605225,0.33512771129608154,-0.9036473196714814,-0.1296716126359501,-0.23090087709836177,0.336587986592361,0.0790000353807023,0.5307455224798889,-0.7345951964101801
1761597266571109888,9.802109718322754,0.3327403664588928,1.8372246026992798,-2.3123626708984375,0.5221221446990967,-0.06978059560060501,-0.8500112891197205,-0.5873687267303467,0.4600699245929718,0.4461721181869507,-0.8973324200466023,-0.13153120852342967,-0.24019556565645667,0.34612179659168213,0.06983734913022323,0.5508339572786397,-0.7560202263921045
1761597266581155840,9.812155723571777,0.3096613585948944,1.8225892782211304,-2.3119890689849854,0.5391092300415039,-0.060291919857263565,-0.8400750756263733,-0.5576639175415039,0.40294331312179565,0.4949517846107483,-0.8907951792100738,-0.13340116730408685,-0.24933228373233504,0.35569865017206814,0.06032850783389398,0.5705461367157315,-0.7775111769544029
1761597266591201792,9.8222017288208,0.21581290662288666,1.8423603773117065,-2.338942050933838,0.5557628870010376,-0.04974986985325813,-0.829850971698761,-0.5410076379776001,0.35104992985725403,0.4831865429878235,-0.8840780166331473,-0.13493853289583937,-0.2585848092013698,0.36514617922198184,0.049770416014709475,0.5901093732424711,-0.7984975123221003
1761597266601247744,9.832247734069824,0.21179592609405518,1.846204400062561,-2.4104866981506348,0.5720377564430237,-0.03805610164999962,-0.8193439841270447,-0.5388346314430237,0.3439795672893524,0.4863514304161072,-0.8770986627295058,-0.13614712714611787,-0.2679402377070415,0.3746597135649477,0.03806529277476021,0.6094937260403649,-0.819368684259731
1761597266611293696,9.842293739318848,0.24038922786712646,1.9003185033798218,-2.480576992034912,0.5880769491195679,-0.02570359967648983,-0.8083964586257935,-0.5148195028305054,0.2984849512577057,0.46830856800079346,-0.8697263829584654,-0.13737040529134006,-0.27736465722203013,0.38441402993117296,0.02570643128247191,0.6289194657949841,-0.8407142160096756
1761597266621338624,9.852338552474976,0.24880637228488922,1.8930989503860474,-2.5709195137023926,0.6038733124732971,-0.01257125474512577,-0.796981155872345,-0.4735937714576721,0.23785200715065002,0.45916682481765747,-0.8619315373049959,-0.13857312223498053,-0.2868918077250499,0.3944166889521668,0.012571585916423864,0.6484114583580823,-0.862530904201944
1761597266631384576,9.862384557723999,0.2834125757217407,1.8107450008392334,-2.622516632080078,0.6186977624893188,0.0012461626902222633,-0.7856281399726868,-0.46708643436431885,0.2370961308479309,0.44776803255081177,-0.8538303111597089,-0.13963011219565163,-0.29612390339769057,0.4047072934659367,-0.0012461629852714307,0.6670846567972191,-0.884816713689558
1761597266641430528,9.872430562973022,0.3036133050918579,1.7201590538024902,-2.6505541801452637,0.6322449445724487,0.015492571517825127,-0.774613618850708,-0.4661378264427185,0.22437559068202972,0.4331982731819153,-0.8455505241839207,-0.14052520581407302,-0.30487021797127434,0.4151518904570232,-0.015493191616249296,0.6845453407016793,-0.9072975844498065
1761597266651476736,9.882476568222046,0.3969440460205078,1.7351316213607788,-2.6730854511260986,0.6448664665222168,0.029917245730757713,-0.7637094855308533,-0.4641108512878418,0.18051670491695404,0.44287818670272827,-0.8370369688039433,-0.1414520842810791,-0.31326755461824596,0.4257039857060247,-0.029921710133017636,0.7012264749447874,-0.9300393575118616
1761597266661522688,9.89252257347107,0.557697057723999,1.7301604747772217,-2.6848273277282715,0.6570739150047302,0.04369083046913147,-0.7525589466094971,-0.4880675673484802,0.14536558091640472,0.48392796516418457,-0.8281351791762142,-0.1429824554711032,-0.32136668470325186,0.43643047778045574,-0.04370474084163642,0.7177639663853174,-0.9536361611650654
1761597266671568640,9.902568578720093,0.6588329672813416,1.5855300426483154,-2.692822217941284,0.6681121587753296,0.05696410685777664,-0.7418769001960754,-0.5297912359237671,0.16869813203811646,0.5157415866851807,-0.8190289492135842,-0.144803979809643,-0.3287755620913479,0.44735899677037255,-0.056994960691597985,0.733129986076964,-0.9779659375537763
1761597266681614592,9.912614583969116,0.7484571933746338,1.4276520013809204,-2.7208354473114014,0.6774045825004578,0.06992627680301666,-0.7322795391082764,-0.5256254076957703,0.23793503642082214,0.5150096416473389,-0.8098913896907155,-0.1466001652539378,-0.33521427564202383,0.458492851413828,-0.0699833870015537,0.74649065105458,-1.00284979370694
1761597266691659776,9.922659635543823,0.797447919845581,1.3198493719100952,-2.805572032928467,0.6851893067359924,0.08296672999858856,-0.7236242890357971,-0.45032602548599243,0.22767168283462524,0.4736395478248596,-0.800590734226113,-0.148287683705011,-0.34087918241674603,0.46996449083519115,-0.08306221099004893,0.7581231296153162,-1.0285428429110992
1761597266701705728,9.932705640792847,0.7191957831382751,1.1955299377441406,-2.8619894981384277,0.6913531422615051,0.09668677300214767,-0.7160184979438782,-0.3980182409286499,0.17975667119026184,0.4813688397407532,-0.7911930451779127,-0.1494845162994427,-0.3458975841786459,0.48168736914255467,-0.09683805593787057,0.7678741324340367,-1.0545998176913252
1761597266711751680,9.94275164604187,0.6424427032470703,1.0803275108337402,-2.8776824474334717,0.6958264112472534,0.11107302457094193,-0.7095691561698914,-0.3720502257347107,0.17841669917106628,0.5065357089042664,-0.7819123186774017,-0.15000213875359344,-0.3503067127564447,0.49335347244282574,-0.11130269209778289,0.7756199393016165,-1.0802378294900545
1761597266721797632,9.952797651290894,0.6015896797180176,0.991690456867218,-2.8802502155303955,0.6995980143547058,0.12669430673122406,-0.7032148241996765,-0.3476541042327881,0.18167053163051605,0.528394877910614,-0.7724401878520163,-0.14993809647608622,-0.35483962117843876,0.5049192814923142,-0.12703572003520885,0.7828199337132015,-1.1054118295700726
1761597266731843584,9.962843656539917,0.6289134621620178,0.8801868557929993,-2.8778133392333984,0.702231764793396,0.14259281754493713,-0.6975226998329163,-0.337546706199646,0.15995843708515167,0.5218634605407715,-0.7629454797512674,-0.14953932983854842,-0.3589939466815274,0.5164063886992726,-0.14308051571035105,0.7887623681148022,-1.1304189876373156
1761597266741889792,9.97288966178894,0.6829532980918884,0.7490502595901489,-2.8731729984283447,0.7035248279571533,0.15823401510715485,-0.6928310394287109,-0.3258392810821533,0.14909327030181885,0.46945762634277344,-0.7534578398037778,-0.1489774880213473,-0.36247783464770317,0.5279364578756143,-0.15890187879214235,0.7930563566816101,-1.1557219683197795
1761597266751934976,9.982934951782227,0.7273889780044556,0.7003629207611084,-2.9140002727508545,0.7036739587783813,0.17371225357055664,-0.6889609098434448,-0.30366480350494385,0.11849357187747955,0.4164999723434448,-0.7438865409578506,-0.1482831871351195,-0.3654198278459202,0.5395492587723786,-0.17459799667175968,0.7959626785152523,-1.1814668726917925
1761597266761980928,9.99298095703125,0.7044557332992554,0.6806192398071289,-2.985199213027954,0.7030259370803833,0.18952488899230957,-0.6854449510574341,-0.2860643267631531,0.07469628751277924,0.43756598234176636,-0.7340074697216494,-0.1474273404784319,-0.3681612298629523,0.5513215405267482,-0.19067824863283894,0.7980595787857545,-1.2078239255594068
1761597266772026112,10.003026008605957,0.5700505375862122,0.6103929877281189,-3.0196986198425293,0.7015101909637451,0.20624874532222748,-0.6821619868278503,-0.3045375347137451,0.06294679641723633,0.46414434909820557,-0.7239248482443863,-0.14604393080197897,-0.37093151797427315,0.5630397972716666,-0.20773972711524488,0.7993804907186293,-1.2340490119082819
1761597266782072064,10.01307201385498,0.3867265284061432,0.5462302565574646,-3.049952983856201,0.698888897895813,0.22431130707263947,-0.6791456341743469,-0.297765851020813,0.10346275568008423,0.4492872357368469,-0.7138408829709285,-0.1437403465916047,-0.37385277348221263,0.5744597916797559,-0.2262362708683859,0.7997242945128699,-1.2593043522558773
1761597266792118016,10.023118019104004,0.3547142744064331,0.540306806564331,-3.1067867279052734,0.6953279972076416,0.24343737959861755,-0.6762080192565918,-0.2387850284576416,0.12970106303691864,0.4250178337097168,-0.7035977486556436,-0.1407805116380705,-0.3769308039955709,0.5857084109151743,-0.24590828147887295,0.7993378032311457,-1.284126692210142
1761597266802163968,10.033164024353027,0.4897952675819397,0.512988269329071,-3.1178464889526367,0.6909977793693542,0.2622966468334198,-0.6735893487930298,-0.19328659772872925,0.1062336266040802,0.4229027032852173,-0.6930447348951889,-0.1378985942695623,-0.37972268016278227,0.597062613292862,-0.2654014071543703,0.7981547885756263,-1.3098086502140978
1761597266812210176,10.04321002960205,0.6882561445236206,0.4185994565486908,-3.0558807849884033,0.6857338547706604,0.27963680028915405,-0.6719912886619568,-0.1831398606300354,0.10398441553115845,0.38553810119628906,-0.6824138551275328,-0.1354436556632304,-0.3816534520224488,0.6085285625077035,-0.2834157953245327,0.7955195683875259,-1.3367150370585001
1761597266822255872,10.053255796432495,0.845916211605072,0.3450438678264618,-3.031980276107788,0.6794983744621277,0.2952688932418823,-0.6716384291648865,-0.17528694868087769,0.1691323220729828,0.3056716322898865,-0.6717965731596501,-0.13339478621975737,-0.38260503815216723,0.6200875224992043,-0.2997369549307613,0.7912153919956344,-1.364830186553549
1761597266832301824,10.063301801681519,0.9339534044265747,0.33508309721946716,-3.07674241065979,0.6725010275840759,0.3099358081817627,-0.6720730066299438,-0.18148845434188843,0.2308356761932373,0.27688562870025635,-0.6609502124709256,-0.1315967444535757,-0.3829435728634404,0.6318079623727046,-0.3151255113614687,0.7857164648817812,-1.3942287897558463
1761597266842347008,10.073346853256226,0.9473387002944946,0.4028978645801544,-3.1283681392669678,0.6650969982147217,0.32439321279525757,-0.6726180911064148,-0.20443415641784668,0.22020822763442993,0.3064833879470825,-0.6496879536994005,-0.12991535505832602,-0.3831617989329482,0.6435950639514327,-0.33037016992811385,0.7797758742319899,-1.4245823544352918
1761597266852392960,10.083392858505249,0.8201740980148315,0.4046611487865448,-3.1728293895721436,0.6573145389556885,0.3392859995365143,-0.6729209423065186,-0.21110177040100098,0.18348011374473572,0.35414958000183105,-0.6380491416728914,-0.12805435639235016,-0.38359041009088307,0.6552509164994995,-0.346157761401209,0.7736666243385572,-1.455200944956208
1761597266862438912,10.093438863754272,0.6322731375694275,0.3683820366859436,-3.2148001194000244,0.6488328576087952,0.3552844524383545,-0.6728958487510681,-0.18966537714004517,0.198197603225708,0.3797593116760254,-0.6262388228742441,-0.1255181777421931,-0.3844440822476368,0.6665379712659916,-0.3632183481871076,0.7671944819142723,-1.4851673188666594
1761597266872484864,10.103484869003296,0.4066506624221802,0.32774192094802856,-3.19124698638916,0.6394305229187012,0.3725334107875824,-0.6725677847862244,-0.14834171533584595,0.2369636595249176,0.38345956802368164,-0.6144089496602259,-0.12210098225520934,-0.3857556912275339,0.6773371148928875,-0.38173745459231306,0.7601464564144462,-1.5140735655225657
1761597266882530816,10.11353087425232,0.3537823259830475,0.3005039393901825,-3.1064257621765137,0.6295499801635742,0.3901342451572418,-0.6719092726707458,-0.11220073699951172,0.2523370683193207,0.3620491027832031,-0.6027576551909659,-0.11821860992434709,-0.38738832873284834,0.6874866179525864,-0.40077738076931724,0.7528621072820756,-1.5417150749338966
1761597266892577024,10.123576879501343,0.5043529272079468,0.14400248229503632,-3.0132434368133545,0.6187971830368042,0.40645772218704224,-0.6722217202186584,-0.08986657857894897,0.286901593208313,0.2843738794326782,-0.5914287688027822,-0.1143023528369298,-0.38836080015092356,0.6973684404934171,-0.41857373447111007,0.7440400935347342,-1.569456169197366
1761597266902622976,10.133622884750366,0.5764665007591248,0.08769667148590088,-2.8939247131347656,0.6072078347206116,0.4209356904029846,-0.6738781929016113,-0.09617573022842407,0.3129052519798279,0.16501283645629883,-0.5805068783815011,-0.11051198331863904,-0.38839156715552936,0.7070720139632825,-0.43447659380869025,0.7334029977872191,-1.597618767461997
