t_rel_ms,time,seconds_elapsed,rotationRateX,rotationRateY,rotationRateZ,gravityX,gravityY,gravityZ,accelerationX,accelerationY,accelerationZ,quaternionW,quaternionX,quaternionY,quaternionZ,pitch,roll,yaw,timestamp,omega_mag,label,session_id
0,1761597272879917312,16.110917329788208,-0.1009222641587257,-0.0101211024448275,0.0184080861508846,-0.1724893003702163,0.6593931317329407,-0.7317432165145874,0.0036965906620025,0.0034791827201843,0.0062335729598999,-0.0314460542762038,0.1046048722154882,-0.3509789465426032,0.9299906861137256,-0.7200112418163483,-0.2314977958734519,3.121720133615492,9330,0.10308539059129908,serve,serves_watch-right
10,1761597272889963264,16.12096333503723,-0.1162590384483337,-0.0023929751478135,0.0120797045528888,-0.1726896613836288,0.6601806879043579,-0.7309854030609131,0.0112669616937637,0.0042632222175598,0.0031564831733703,-0.0312508147777228,0.1046784894614178,-0.351496395115273,0.9297935199231953,-0.7210593364816144,-0.2319889104480033,3.1209887756982515,9340,0.11690940771843072,serve,serves_watch-right
20,1761597272900008448,16.13100838661194,-0.1393153667449951,0.0076990742236375,0.0201011467725038,-0.1727675646543502,0.6611881852149963,-0.7300558686256409,0.0097121447324752,0.0005244612693786,0.0093374848365783,-0.0310605059191929,0.1046977332300275,-0.352151190517706,0.9295499554223946,-0.722401427658109,-0.232374827339453,3.120271586135917,9350,0.14096844773481512,serve,serves_watch-right
30,1761597272910054400,16.141054391860962,-0.1533304154872894,0.0097357602789998,0.0265482179820537,-0.172706127166748,0.6623480916023254,-0.7290182709693909,0.0070719569921493,-0.0059760212898254,0.0093680024147033,-0.0308870030507544,0.1046545950983703,-0.3528998248832889,0.9292767156503756,-0.7239486134159511,-0.2326139627938964,3.1196206382622313,9360,0.15591603259362902,serve,serves_watch-right
40,1761597272920100352,16.151100397109985,-0.1450778096914291,0.0151963047683238,0.0239127520471811,-0.1726380139589309,0.6633629202842712,-0.7281110882759094,0.0033722668886184,-0.0003990530967712,0.0037763714790344,-0.0306938032551605,0.1045931464387801,-0.3535600812029621,0.9290390113105628,-0.7253039781299161,-0.232804870902781,3.1189681278982992,9370,0.14781853149704968,serve,serves_watch-right
50,1761597272930146560,16.16114640235901,-0.1423196643590927,0.0210332553833723,0.0278924889862537,-0.1725168377161026,0.6643189787864685,-0.7272676825523376,0.0077829360961914,-0.0070924162864685,-0.0031247735023498,-0.0303059842547674,0.1044254664593944,-0.3542054169173148,0.9288247778232028,-0.7265823077077909,-0.2329074348998589,3.1179390354705014,9380,0.146544449356348,serve,serves_watch-right
60,1761597272940192512,16.171192407608032,-0.1497381627559662,0.0194191150367259,0.0257550366222858,-0.1723981201648712,0.6653048992156982,-0.72639399766922,0.0123639702796936,-0.009390652179718,-0.0063787698745727,-0.0298469364851608,0.1042328571165778,-0.3548781697125169,0.9286043392313176,-0.7279021164149082,-0.2330228181256022,3.116745935786703,9390,0.1531729131594653,serve,serves_watch-right
70,1761597272950238464,16.181238412857056,-0.1457718312740326,0.0275136921554803,0.0240768026560544,-0.1721210479736328,0.6664010286331177,-0.7254543304443359,0.011476531624794,-0.0040169954299926,-0.005868911743164,-0.0294489568461033,0.1039817889092514,-0.3556130359224589,0.928364091320734,-0.7293713593453753,-0.2329522923008456,3.1157367395744,9400,0.15028680073496192,serve,serves_watch-right
80,1761597272960284416,16.19128441810608,-0.1348645836114883,0.0337859690189361,0.0229502860456705,-0.1716747134923935,0.6674294471740723,-0.7246142029762268,0.0117931365966796,-0.0016121864318847,-0.0070752501487731,-0.0290594212957503,0.1036376871866384,-0.3563034278613429,0.9281501186631352,-0.7307514931795926,-0.2326295553124405,3.1148530139460413,9410,0.1409136730229779,serve,serves_watch-right
90,1761597272970330368,16.201330423355103,-0.1187177300453186,0.0397462919354438,0.0236428845673799,-0.1710000187158584,0.6683382987976074,-0.7239357233047485,0.0100350528955459,0.0010342597961425,-0.0127586126327514,-0.0287268310686459,0.103184499985108,-0.3569104743773357,0.9279777396422176,-0.7319726138505291,-0.231957229628242,3.114245922097788,9420,0.12740742969072533,serve,serves_watch-right
100,1761597272980376576,16.211376428604126,-0.1090493947267532,0.037967562675476,0.0280080698430538,-0.1703701913356781,0.6691674590110779,-0.7233180403709412,0.0068417340517044,0.0008307099342346,-0.016824722290039,-0.0284072610880026,0.1027565771053538,-0.3574661563281262,0.9278212118402744,-0.7330878387680749,-0.2313234516156291,3.1136655361514283,9430,0.11881817319804579,serve,serves_watch-right
110,1761597272990422528,16.22142243385315,-0.1290725022554397,0.0487468428909778,0.0300471670925617,-0.1697793453931808,0.6699481010437012,-0.7227340340614319,0.0046945214271545,-0.0035662651062011,-0.0183548331260681,-0.0280404372273545,0.1023290232286643,-0.3579968705640001,0.9276748624364136,-0.7341388727559676,-0.2307291577785575,3.112976272480815,9440,0.1412048079231245,serve,serves_watch-right
120,1761597273000467456,16.231467485427856,-0.1537019461393356,0.052386850118637,0.0232867319136858,-0.1692200899124145,0.6709157228469849,-0.7219672799110413,0.0043488591909408,-0.0089284181594848,-0.0190300345420837,-0.0276143135136076,0.1019039640428319,-0.3586529696668697,0.9274811334335566,-0.7354430280563299,-0.2302314312965368,3.1120916703980206,9450,0.16404554914898373,serve,serves_watch-right
130,1761597273010513408,16.2415132522583,-0.1675159037113189,0.0757903084158897,0.0083510130643844,-0.1685683578252792,0.6718359589576721,-0.7212635278701782,-0.0005752891302108,-0.0091010332107543,-0.0191386342048645,-0.0271497288196321,0.1014106575336144,-0.3592827667524632,0.9273049897566435,-0.7366846766530741,-0.2295915605813146,3.11118692316773,9460,0.1840529496237348,serve,serves_watch-right
140,1761597273020559360,16.251559257507324,-0.1813821792602539,0.0865042060613632,0.001836122944951,-0.167746365070343,0.6727814078330994,-0.7205736637115479,-0.0013362914323806,-0.0189422965049743,-0.0151898860931396,-0.0266183172522793,0.1007987824622696,-0.3599343921299346,0.9271345387479988,-0.737961848285141,-0.2287218885267115,3.1102235360800163,9470,0.20096229488880407,serve,serves_watch-right
150,1761597273030605312,16.261605262756348,-0.1925752758979797,0.0938455760478973,-0.0081606730818748,-0.1669292002916336,0.6738929152488708,-0.7197242379188538,-0.0051289200782775,-0.0187110304832458,-0.0209830999374389,-0.0260525254988769,0.1001828395121634,-0.3606955324962481,0.9269215303149136,-0.7394652807295827,-0.2279053324898108,3.1091387153394514,9480,0.21438009612856768,serve,serves_watch-right
160,1761597273040651264,16.27165126800537,-0.1994576901197433,0.1057355254888534,-0.0261668376624584,-0.1661374568939209,0.6750478744506836,-0.718824565410614,-0.0030367374420166,-0.007155418395996,-0.0284898877143859,-0.0253973632066289,0.0995468140558728,-0.3614943336976142,0.926696995865582,-0.741029597264281,-0.2271354609975308,3.107836212367674,9490,0.2272621281506467,serve,serves_watch-right
170,1761597273050697216,16.281697273254395,-0.1796303540468216,0.1261054128408432,-0.0313655957579612,-0.1653643697500229,0.67610102891922,-0.7180125713348389,-0.0014599859714508,0.0002142786979675,-0.0301868915557861,-0.0248946406066191,0.0989748108544876,-0.3622122272915913,0.9264915830705848,-0.7424580215224807,-0.2263613315228983,3.106881414838089,9500,0.22170575057945116,serve,serves_watch-right
180,1761597273060743424,16.291743278503418,-0.1529691815376281,0.1283520460128784,-0.0319368429481983,-0.1645873785018921,0.6769213080406189,-0.7174180150032043,0.0011046975851058,0.0065961480140686,-0.0389602184295654,-0.0244235259210794,0.0984019393176463,-0.3627782525787703,0.9263436695888044,-0.7435718724002572,-0.225513939631918,3.106062034553289,9510,0.20222210599606008,serve,serves_watch-right
190,1761597273070789376,16.30178928375244,-0.122997298836708,0.1386807262897491,-0.0221460871398448,-0.1637853682041168,0.6774757504463196,-0.7170780897140503,-0.0005060136318206,0.0180961489677429,-0.0501796007156372,-0.0240054559528692,0.0978239754368385,-0.3631685957994934,0.9262627899142302,-0.7443253535704617,-0.2245545112022064,3.1054449567393716,9520,0.18668456963815824,serve,serves_watch-right
200,1761597273080835328,16.311835289001465,-0.1102285087108612,0.144255518913269,-0.0030906361062079,-0.1628587990999221,0.6779413819313049,-0.7168490290641785,-0.0016767233610153,0.0316991209983825,-0.0589231252670288,-0.0236588227594028,0.097201748396977,-0.3634932146845261,0.926209867782206,-0.7449585799545474,-0.223395107950551,3.1050756251295284,9530,0.18157513844438591,serve,serves_watch-right
210,1761597273090881280,16.32188129425049,-0.1325494647026062,0.1671506613492965,0.0226664822548627,-0.1617179661989212,0.6785911321640015,-0.7164924144744873,-0.0089363455772399,0.035871148109436,-0.0659019947052002,-0.0231234715164,0.0963958675184314,-0.3639527765099035,0.9261271793926392,-0.7458428397477733,-0.2219880784362631,3.104366997803239,9540,0.21452849134850283,serve,serves_watch-right
220,1761597273100926464,16.331926345825195,-0.1401567906141281,0.1911683678627014,0.0403408147394657,-0.1602841913700103,0.6794292330741882,-0.7160201668739319,-0.0149782449007034,0.0353382229804992,-0.0683731436729431,-0.0225554190621573,0.0954243878708996,-0.3645327252045996,0.9260136379305884,-0.7469844559848721,-0.2202236831928222,3.103699130842047,9550,0.24045093503745324,serve,serves_watch-right
230,1761597273110972416,16.34197235107422,-0.1497663408517837,0.2115602642297744,0.0522281005978584,-0.1585928052663803,0.680371105670929,-0.7155022621154785,-0.0181650221347808,0.022845447063446,-0.0685706138610839,-0.0221245938789904,0.0943697399277314,-0.3651619076058696,0.9258842896238806,-0.7482689251942469,-0.218125882352873,3.103444414289576,9560,0.2644153489212845,serve,serves_watch-right
240,1761597273121018368,16.352018356323242,-0.1502731293439865,0.2218986600637436,0.0461691431701183,-0.1567090898752212,0.6814003586769104,-0.7149375677108765,-0.0118547230958938,0.0218466520309448,-0.0680518746376037,-0.0216966076465307,0.093214037622292,-0.3658447012735155,0.925741848957686,-0.7496742239946302,-0.2157801325288263,3.1032824242692403,9570,0.27194230734106495,serve,serves_watch-right
250,1761597273131064320,16.362064361572266,-0.1333833187818527,0.2348839193582534,0.045807309448719,-0.154783695936203,0.6823896765708923,-0.7144133448600769,-0.0074172317981719,0.0324693322181701,-0.0707582235336303,-0.0211436360158107,0.091983660221094,-0.3665137686877049,0.9256131281417584,-0.7510267333184099,-0.2133608144573047,3.1028889596919367,9580,0.27397057305719263,serve,serves_watch-right
260,1761597273141110528,16.37211036682129,-0.156836450099945,0.2566158473491668,0.0418341383337974,-0.1527325958013534,0.6834057569503784,-0.7138832211494446,-0.0018846839666366,0.0287676453590393,-0.0744467973709106,-0.0205247451774847,0.0906586180792969,-0.3672048495661519,0.9254838043542216,-0.7524177028481608,-0.21076868842028,3.1024204168988967,9590,0.30364364034310803,serve,serves_watch-right
270,1761597273151156480,16.382156372070312,-0.1656595468521118,0.2841069102287292,0.0308958273380994,-0.1505598574876785,0.6845525503158569,-0.7132458090782166,-0.0006242394447326,0.025866150856018,-0.0646929740905761,-0.0199235302415414,0.0892781729755218,-0.3679762162579332,0.925324853005075,-0.7539897039664946,-0.2080369907111636,3.102028910249002,9600,0.3303246494736169,serve,serves_watch-right
280,1761597273161202432,16.392202377319336,-0.1754940599203109,0.307134211063385,0.0463746488094329,-0.1481846570968628,0.6857697367668152,-0.7125737071037292,-0.0025721937417984,0.0251830220222473,-0.0543788075447082,-0.0193142182639602,0.0877854357270447,-0.3687910865366756,0.9251561636949168,-0.7556607271001164,-0.205034630969027,3.101721023579019,9610,0.35676350251257466,serve,serves_watch-right
290,1761597273171248384,16.40224838256836,-0.1821341216564178,0.325745165348053,0.0624921023845672,-0.1455645263195037,0.6870646476745605,-0.7118659615516663,-0.0032849609851837,0.0261769294738769,-0.0497002005577087,-0.0189336960289305,0.0862520128072694,-0.3696317110933307,0.9249727268862408,-0.7574414214193367,-0.2017024503908806,3.102032658165685,9620,0.37840192108342735,serve,serves_watch-right
300,1761597273181294336,16.412294387817383,-0.1704894453287124,0.3398663103580475,0.0867753401398658,-0.1427176594734192,0.6883701682090759,-0.7111808657646179,-0.0100533366203308,0.034987986087799,-0.0422217845916748,-0.018579906772696,0.0846049576090625,-0.3704747724496599,0.9247947399023442,-0.7592396901822839,-0.1980464621765256,3.102536164295679,9630,0.3900073326762897,serve,serves_watch-right
310,1761597273191340544,16.422340393066406,-0.1601092517375946,0.3560833632946014,0.100662924349308,-0.1396893113851547,0.689734160900116,-0.7104602456092834,-0.0151874125003814,0.032952606678009,-0.038670003414154,-0.0182376267733619,0.0828647030867435,-0.3713533616666961,0.9246067135409596,-0.7611218015825078,-0.1941415879789835,3.1031626256829425,9640,0.4031914662362313,serve,serves_watch-right
320,1761597273201386496,16.43238639831543,-0.1395637542009353,0.3701355457305908,0.1009127274155616,-0.136513739824295,0.6909776329994202,-0.7098689079284668,-0.0127935260534286,0.0250715613365173,-0.0332951545715332,-0.0179390948811563,0.081056500781102,-0.3721496690707384,0.9244526366022836,-0.7628406193997379,-0.1899889380113641,3.10400805786391,9650,0.4082422592706307,serve,serves_watch-right
330,1761597273211431424,16.442431449890137,-0.1197988465428352,0.3739323914051056,0.0964860245585441,-0.1332638561725616,0.6920665502548218,-0.7094255089759827,-0.0127322226762771,0.0205798745155334,-0.028260588645935,-0.0175045532944429,0.0791468061876809,-0.3728579105159285,0.9243409992984678,-0.7643480776906093,-0.1856836848756079,3.1046495945434525,9660,0.40433494767339473,serve,serves_watch-right
340,1761597273221477632,16.45247745513916,-0.1045232191681861,0.3688971698284149,0.071625679731369,-0.1301420331001281,0.6930019855499268,-0.7090919613838196,-0.014511302113533,0.0203616619110107,-0.0215294361114501,-0.0171365279682252,0.0773278514016558,-0.3734627644586433,0.9242577860195084,-0.7656447938231046,-0.1815132925294142,3.1054081669126212,9670,0.39005187251143364,serve,serves_watch-right
350,1761597273231523584,16.462523460388184,-0.1157934516668319,0.3846652209758758,0.0461954176425933,-0.1271621882915496,0.6939006447792053,-0.7087536454200745,-0.020985409617424,0.0181660056114196,-0.0115679502487182,-0.0165716947806956,0.0755049778614638,-0.3740617233508463,0.92417657274571,-0.7668920558468612,-0.1775278165951506,3.105676393040593,9680,0.4043630451568391,serve,serves_watch-right
360,1761597273241569536,16.472569465637207,-0.136804461479187,0.3957293033599853,0.0320966467261314,-0.1242095381021499,0.6948714852333069,-0.7083259224891663,-0.0274475738406181,0.0027908682823181,-0.0019096732139587,-0.0159573152500723,0.0736784361236856,-0.3747112521162948,0.9240716370437272,-0.7682411987484278,-0.1735915231583542,3.105813006919243,9690,0.41993730121227824,serve,serves_watch-right
370,1761597273251615488,16.48261547088623,-0.1827306449413299,0.4040375053882599,0.0113537274301052,-0.121315874159336,0.6960647106170654,-0.7076555490493774,-0.0426550731062889,-0.0196578502655029,0.0119463205337524,-0.0152779978740621,0.071863684895858,-0.3755101046694877,0.923901665207137,-0.7699017331727016,-0.1697830678624851,3.105733854468423,9700,0.44358280116298426,serve,serves_watch-right
380,1761597273261661440,16.492661476135254,-0.1750407665967941,0.4175258874893188,-0.007314764894545,-0.1184771507978439,0.6973803639411926,-0.7068406343460083,-0.0571362227201461,-0.0337299108505249,0.0204851031303405,-0.0144306563210751,0.0700126256116221,-0.3764012723759221,0.9236947185087838,-0.7717358730151936,-0.1660713180861769,3.105242232852259,9710,0.45279205213872636,serve,serves_watch-right
390,1761597273271707648,16.502707481384277,-0.1755272895097732,0.4140882790088653,-0.0113258399069309,-0.1156878471374511,0.6986228227615356,-0.7060753107070923,-0.0704846233129501,-0.0494377017021179,0.031667411327362,-0.0133219997228094,0.0680774650033686,-0.3772635547796606,0.9235042441623648,-0.7734709103475412,-0.1624033076348796,3.1041823558120507,9720,0.44989688465777244,serve,serves_watch-right
400,1761597273281753600,16.5127534866333,-0.1671303361654281,0.3904575109481811,-0.0403401814401149,-0.1131070554256439,0.6998422145843506,-0.7052854895591736,-0.0864626243710517,-0.0607889294624328,0.0279936790466308,-0.0120551416654786,0.0661879424851635,-0.378122221316682,0.923307802886884,-0.7751765630830195,-0.1590165871013137,3.1026731832350167,9730,0.4266344423053996,serve,serves_watch-right
410,1761597273291799296,16.522799253463745,-0.1594690680503845,0.3794598281383514,-0.0806947946548461,-0.1109652146697044,0.7009686231613159,-0.7045067548751831,-0.1002469584345817,-0.0470532178878784,0.0234917402267456,-0.0108350924329494,0.0645514525450015,-0.3789191659653894,0.923112164536072,-0.7767547459597511,-0.1562241984788927,3.10103770037262,9740,0.41944224241250794,serve,serves_watch-right
420,1761597273301845248,16.53284525871277,-0.1849749535322189,0.4108606278896332,-0.1149867177009582,-0.1089899465441703,0.7020861506462097,-0.7037018537521362,-0.1099584326148033,-0.0568529963493347,0.0302704572677612,-0.0094509627238225,0.0629354349999789,-0.3797212104500491,0.9229093683329174,-0.7783228553962986,-0.1536599432315092,3.0989573461128708,9750,0.46502057398759256,serve,serves_watch-right
430,1761597273311891200,16.542891263961792,-0.2291403114795684,0.3736839890480041,-0.1414110511541366,-0.1072707772254943,0.7034635543823242,-0.7025895118713379,-0.1227554678916931,-0.0828123092651367,0.0378861427307128,-0.0080346354695258,0.061448977751365,-0.3806957852447246,0.9226213722785302,-0.7802590755029911,-0.1515091235985965,3.09660847877014,9760,0.46058885288758383,serve,serves_watch-right
440,1761597273321937408,16.552937269210815,-0.2537063956260681,0.3384074866771698,-0.192899003624916,-0.1061107590794563,0.7050200700759888,-0.7012041807174683,-0.1353138089179992,-0.0997496843338012,0.0435961484909057,-0.0065404897156283,0.0602353528345116,-0.3817978802715272,0.9222577994574412,-0.7824514640622334,-0.1501869856179106,3.0937289011934914,9770,0.4648619018807792,serve,serves_watch-right
450,1761597273331982336,16.562982320785522,-0.2877010405063629,0.3048305809497833,-0.242794394493103,-0.105598971247673,0.7067194581031799,-0.6995686888694763,-0.1272348761558532,-0.1178523302078247,0.045790672302246,-0.0046574415810624,0.0592122927086568,-0.3830268344216392,0.9218256531195947,-0.784850585560879,-0.149817621526851,3.0895926430434835,9780,0.48439930820336524,serve,serves_watch-right
460,1761597273342028288,16.573028326034546,-0.3484203219413757,0.2674003839492798,-0.2886814773082733,-0.1057629659771919,0.7087205648422241,-0.6975165605545044,-0.1366991698741912,-0.1256669759750366,0.0503913164138793,-0.0025259933703982,0.0584543643939052,-0.3844799337607038,0.9212772799113882,-0.7876830117161376,-0.1504816452493567,3.08444546709257,9790,0.5255822308819441,serve,serves_watch-right
470,1761597273352074496,16.58307433128357,-0.3687933981418609,0.2345616221427917,-0.3379265964031219,-0.1067019701004028,0.7110276818275452,-0.6950210928916931,-0.1500576734542846,-0.1337876915931701,0.0605911612510681,-0.0003955549434672,0.0581181160488299,-0.3861498856704788,0.920603287357654,-0.7909586484682805,-0.152333976695212,3.078754711950659,9800,0.5524691028934354,serve,serves_watch-right
480,1761597273362120448,16.593120336532593,-0.3357014954090118,0.19453164935112,-0.3699689507484436,-0.108229823410511,0.7132248282432556,-0.6925292015075684,-0.1660011410713195,-0.1513962149620056,0.0702605247497558,0.0018140742309852,0.0580607018388063,-0.3877684275717737,0.9199246440334892,-0.794088234138007,-0.1550279417445213,3.0725359377338535,9810,0.5361110716418923,serve,serves_watch-right
490,1761597273372166400,16.603166341781616,-0.219929963350296,0.1621399670839309,-0.4124318957328796,-0.11026281863451,0.714815080165863,-0.6905660033226013,-0.1790132820606231,-0.1646289229393005,0.0778799057006836,0.0041211786861707,0.0582218862259912,-0.3890079694750089,0.9193834642119656,-0.7963596737207046,-0.1583336870447135,3.065909905711575,9820,0.4947308625132028,serve,serves_watch-right
500,1761597273382212352,16.61321234703064,-0.1229778602719307,0.0858790352940559,-0.4846725165843963,-0.1128962859511375,0.7155587673187256,-0.6893693804740906,-0.1915623396635055,-0.146482229232788,0.082481563091278,0.0065305762242023,0.058651265153459,-0.3897118553733805,0.9190441390621572,-0.7974236332374741,-0.1623265276491872,3.058873293332019,9830,0.5073521569406718,serve,serves_watch-right
510,1761597273392258304,16.623258352279663,-0.0495464876294136,0.0306040234863758,-0.5865806341171265,-0.116540141403675,0.71554034948349,-0.6887817978858948,-0.205679714679718,-0.1192573904991149,0.0738068222999572,0.009076343293425,0.0595635802272292,-0.3899503429384023,0.9188625912086504,-0.7973972733923037,-0.1676100604324263,3.0510939961711707,9840,0.5894644187830309,serve,serves_watch-right
520,1761597273402304512,16.633304357528687,-0.0337957553565502,0.0207788236439228,-0.6849825382232666,-0.1211041882634162,0.7150798439979553,-0.6884726881980896,-0.2089891880750656,-0.1379772424697876,0.0611991286277771,0.0119885638231774,0.0608189291170274,-0.389954766346008,0.9187451842363284,-0.7967383476067063,-0.1741213928923982,3.042060931991775,9850,0.6861304469726831,serve,serves_watch-right
530,1761597273412350464,16.64335036277771,-0.0496237874031066,0.0115092247724533,-0.7680776119232178,-0.12631256878376,0.7144775390625,-0.6881620287895203,-0.2202603071928024,-0.1770782470703125,0.0643674731254577,0.0153183819534904,0.0622496432207377,-0.3899281566972424,0.9186110910411608,-0.7958770731935062,-0.1815299803638413,3.031762696111369,9860,0.7697650293880365,serve,serves_watch-right
540,1761597273422396416,16.653396368026733,-0.0748700201511383,-0.0160286594182252,-0.8672025799751282,-0.132303312420845,0.7138452529907227,-0.687692403793335,-0.2334040850400924,-0.1974267959594726,0.0577943325042724,0.0190431987830339,0.0639425008118987,-0.3899553389482889,0.9184135925851444,-0.7949737583695694,-0.1900651080548396,3.0201346216390577,9870,0.8705761038276297,serve,serves_watch-right
550,1761597273432442368,16.663442373275757,-0.1083487197756767,-0.0351694971323013,-0.9763228297233582,-0.1391881555318832,0.7132291197776794,-0.6869722604751587,-0.2369257509708404,-0.2028531432151794,0.0513368844985961,0.0232334032589078,0.0659292606286035,-0.390086144164175,0.9181211144925596,-0.7940943917894286,-0.1999048886031637,3.006938465145669,9880,0.982945881747613,serve,serves_watch-right
560,1761597273442487552,16.673487424850464,-0.1596957892179489,-0.0529602095484733,-1.0503965616226196,-0.1468362659215927,0.7126806378364563,-0.6859485507011414,-0.2241964638233184,-0.2201574444770813,0.0562030673027038,0.0278116092675126,0.0681711403487564,-0.3903567839585035,0.9177150145773176,-0.7933122242861461,-0.2108804616008059,2.992401084272749,9890,1.063785911524487,serve,serves_watch-right
570,1761597273452533504,16.683533430099487,-0.2084919661283493,-0.0715856999158859,-1.102612853050232,-0.1550250351428985,0.7123732566833496,-0.6844644546508789,-0.2164044082164764,-0.2470717430114746,0.0681924819946289,0.0328147437344626,0.0705293220343934,-0.3908879498386775,0.9171452293733244,-0.7928740658511435,-0.2227331441374337,2.976509600050007,9900,1.1244325306945209,serve,serves_watch-right
580,1761597273462579456,16.69357943534851,-0.1313633620738983,-0.1297358125448227,-1.1699005365371704,-0.1639172881841659,0.7117497324943542,-0.6830399036407471,-0.2197192013263702,-0.2482792735099792,0.0789597034454345,0.0380796498972689,0.073162696663035,-0.3913148053434499,0.9165533199350804,-0.7919860580779041,-0.2355279730646639,2.959701091512857,9910,1.1843795757028162,serve,serves_watch-right
590,1761597273472625408,16.703625440597534,-0.076755903661251,-0.2044570595026016,-1.1914174556732178,-0.1735526770353317,0.7104315161705017,-0.6820311546325684,-0.2288978844881057,-0.2599157691001892,0.0992827415466308,0.0434103732146126,0.0761824596950888,-0.3913830011207627,0.9160410002705316,-0.7901111972020807,-0.2491760560390989,2.942538399568403,9920,1.211267811679213,serve,serves_watch-right
600,1761597273482671616,16.713671445846558,-0.0498883351683616,-0.2950423657894134,-1.258568286895752,-0.1840076595544815,0.7086524367332458,-0.6811408400535583,-0.233915314078331,-0.2514533996582031,0.1059913635253906,0.0487705997752944,0.0796499511661805,-0.3912613646363596,0.9155281841591842,-0.7875864817344265,-0.2638481480006182,2.9249955795921805,9930,1.2936510257315117,serve,serves_watch-right
610,1761597273492717568,16.72371745109558,-0.015107087790966,-0.3593298196792602,-1.3248521089553833,-0.1955098956823349,0.7064163684844971,-0.6802586913108826,-0.2496652901172638,-0.221980333328247,0.1016149520874023,0.0542838796121189,0.0836418771203781,-0.3909919245032617,0.914976918304029,-0.7844222380799454,-0.2798622613576326,2.9066826496367613,9940,1.37279978657333,serve,serves_watch-right
620,1761597273502763520,16.733763456344604,-0.0331625193357467,-0.3915428817272186,-1.3804128170013428,-0.2077028304338455,0.7037977576255798,-0.6793586611747742,-0.2629544734954834,-0.2441420555114746,0.1031257510185241,0.0599511492129101,0.0879652483977406,-0.3906184691845226,0.9143768748216026,-0.7807293751244833,-0.2967087272040082,2.887810882190074,9950,1.4352508931408232,serve,serves_watch-right
630,1761597273512809472,16.743809461593628,-0.104727953672409,-0.4316201210021972,-1.4405661821365356,-0.2204920202493667,0.7012265920639038,-0.6779856085777283,-0.2776921987533569,-0.2644437551498413,0.115760326385498,0.0656769184555301,0.0926043995411859,-0.3904249095693027,0.9136078563548576,-0.7771165099324344,-0.3144275834888179,2.86845794719254,9960,1.5074796178555105,serve,serves_watch-right
640,1761597273522855424,16.75385546684265,-0.1306173354387283,-0.4171543717384338,-1.50213360786438,-0.2337811887264251,0.6986838579177856,-0.676156222820282,-0.3013293147087097,-0.2572623491287231,0.1113827228546142,0.0716410663369992,0.0974300213727032,-0.3904219113256353,0.9126586282762684,-0.7735562077066234,-0.3328838360115287,2.848285251609514,9970,1.564443681969172,serve,serves_watch-right
650,1761597273532901632,16.763901472091675,-0.1646883338689804,-0.427152544260025,-1.5384531021118164,-0.2473014444112777,0.6959835290908813,-0.6741282343864441,-0.3067299127578735,-0.2902371287345886,0.1168010234832763,0.077674040708819,0.102371106372056,-0.3904561893798573,0.911608920443292,-0.7697887097915038,-0.3516031247358396,2.8279201676329824,9980,1.6051228896186809,serve,serves_watch-right
660,1761597273542947584,16.7739474773407,-0.1662806272506714,-0.4257138967514038,-1.6031593084335327,-0.2611567378044128,0.6931226253509521,-0.6718469262123108,-0.3170445561408996,-0.2987592220306396,0.1190209984779357,0.0838723363830801,0.1074452376990433,-0.3905535314490262,0.9104334399054804,-0.7658121266716246,-0.3707399415740622,2.8070873872051574,9990,1.6670336940515702,serve,serves_watch-right
670,1761597273552993536,16.78399348258972,-0.1186487600207328,-0.4511656463146209,-1.6666518449783323,-0.2755303084850311,0.6896425485610962,-0.6696836352348328,-0.3244757950305938,-0.2636324167251587,0.1088315844535827,0.0904933696985114,0.112659251276206,-0.3904690366693846,0.9092044368632164,-0.7609952966872499,-0.3903238356938005,2.785375368076325,10000,1.7307097795524893,serve,serves_watch-right
680,1761597273563038464,16.79403829574585,-0.0978702455759048,-0.4671049416065216,-1.7055023908615112,-0.2903097867965698,0.6855698823928833,-0.6676182150840759,-0.3432809114456177,-0.2538377046585083,0.0990452766418457,0.0972788795113895,0.1180671528741992,-0.3901935793970683,0.9079349369085844,-0.7553862124885254,-0.4101789581488022,2.7634389319393446,10010,1.7710177911801595,serve,serves_watch-right
690,1761597273573084416,16.804084300994873,-0.0585035979747772,-0.4859940111637115,-1.747800350189209,-0.3053852915763855,0.680925726890564,-0.6656426191329956,-0.3584483563899994,-0.2247947454452514,0.0867699384689331,0.1042591635244655,0.1236004739377296,-0.3897455771830367,0.9066154179184815,-0.7490259491785893,-0.4301335345964096,2.7412964945340934,10020,1.8150534190443293,serve,serves_watch-right
700,1761597273583130368,16.814130306243896,-0.0290780644863843,-0.5050678253173828,-1.7638829946517944,-0.3207162320613861,0.6756554841995239,-0.6638002395629883,-0.3745504915714264,-0.2131158113479614,0.0856294631958007,0.1112994289530748,0.1293030782000615,-0.3890765909405558,0.9052693287663448,-0.7418534824133212,-0.450078362898112,2.71933141150668,10030,1.8349992536311526,serve,serves_watch-right
710,1761597273593176320,16.82417631149292,-0.0722171142697334,-0.4908938407897949,-1.7634657621383667,-0.3359906375408172,0.6701653003692627,-0.6618071794509888,-0.3686602413654327,-0.2349236011505127,0.0967284440994262,0.1183700021464337,0.1350023546333656,-0.3884208576435491,0.9038208369756284,-0.7344314390738529,-0.4697779501010731,2.6975550961408388,10040,1.8319398376456184,serve,serves_watch-right
720,1761597273603222272,16.834222316741943,-0.0470321290194988,-0.4510425627231598,-1.7894028425216677,-0.3510772883892059,0.6644562482833862,-0.6597291231155396,-0.3552367687225342,-0.2286500334739685,0.0901338458061218,0.1255552186850941,0.1405906251349152,-0.3877753262095189,0.9022751080136484,-0.726766023332169,-0.4890384404193937,2.6758628447017325,10050,1.8459723582363325,serve,serves_watch-right
730,1761597273613268480,16.844268321990967,0.0476649478077888,-0.4516863822937011,-1.7949010133743286,-0.36598601937294,0.6579881310462952,-0.6581076979637146,-0.3574788868427276,-0.2038103342056274,0.0785484313964843,0.1328037544426535,0.1461256882895044,-0.3867731001026542,0.9007868139572628,-0.7181439355195564,-0.5075287577789388,2.65475629486746,10060,1.851475677131969,serve,serves_watch-right
740,1761597273623314432,16.85431432723999,0.0964998677372932,-0.463537186384201,-1.8041778802871704,-0.3808798491954803,0.6507269740104675,-0.6568751335144043,-0.3624825775623321,-0.175369918346405,0.0798182487487793,0.1399663951226087,0.1517723768899359,-0.3853927409690917,0.8993592546751981,-0.7085414793041791,-0.5254610472589873,2.634509808901681,10070,1.8652712326500411,serve,serves_watch-right
750,1761597273633360384,16.864360332489014,0.1026739701628685,-0.4235371649265289,-1.8137661218643188,-0.3956328630447387,0.6429693102836609,-0.6557934880256653,-0.3641327321529388,-0.1190893054008483,0.0725415349006652,0.1470758755866356,0.1574366172011429,-0.3838189312420472,0.8979228245236215,-0.6983689056294674,-0.5428342425137916,2.6149246822872985,10080,1.8653882220722147,serve,serves_watch-right
760,1761597273643406336,16.874406337738037,0.0450689978897571,-0.3348211348056793,-1.8193457126617432,-0.4097999036312103,0.6351258754730225,-0.6547359824180603,-0.3723503649234772,-0.1142365932464599,0.063106894493103,0.1543160240227127,0.1627688366320293,-0.3822804270310763,0.8964120700622391,-0.6881715037598377,-0.5592469602856934,2.5955665985087664,10090,1.8504473051303072,serve,serves_watch-right
770,1761597273653452288,16.88445234298706,0.0149194542318582,-0.2928506135940552,-1.8107285499572752,-0.423361986875534,0.6273273825645447,-0.6536244750022888,-0.3946159183979034,-0.1340107321739196,0.0509175658226013,0.1617544279713161,0.1677205274547205,-0.3808642583794028,0.8947892012005152,-0.6781165305136356,-0.5747667982393379,2.5761795365103906,10100,1.834317844220943,serve,serves_watch-right
780,1761597273663498496,16.894498348236084,0.0061478004790842,-0.3063733279705047,-1.852837920188904,-0.4367949366569519,0.6193763017654419,-0.652367353439331,-0.4184449315071106,-0.1262732744216919,0.0264060497283935,0.1692814100576726,0.1726179022424693,-0.3794988576077552,0.8930439199460338,-0.6679480157016121,-0.5899986185966569,2.5568377884044824,10110,1.8780071272581467,serve,serves_watch-right
790,1761597273673544448,16.904544353485107,0.023280382156372,-0.3591944277286529,-1.9077128171920776,-0.4506590664386749,0.6108434796333313,-0.6509813070297241,-0.4082581698894501,-0.0807836651802063,0.0139116048812866,0.1771319262586458,0.1777103765842062,-0.3780586912352205,0.8911312541305654,-0.6571254737954834,-0.6055235946807123,2.536980561727274,10120,1.941373432903519,serve,serves_watch-right
800,1761597273683589376,16.914589405059814,-0.0097020687535405,-0.3390438854694366,-1.902453064918518,-0.464660495519638,0.6020015478134155,-0.6493725180625916,-0.3637543618679046,-0.0636715292930603,0.0257458686828613,0.1850511138844902,0.1829264413782489,-0.3766319820073909,0.8890682164757645,-0.6460054201882346,-0.6210881729898312,2.517147090044911,10130,1.9324524704711818,serve,serves_watch-right
810,1761597273693635584,16.924635410308838,-0.0103270467370748,-0.2729253768920898,-1.8710092306137085,-0.4780047833919525,0.5931382179260254,-0.6478414535522461,-0.3156659007072449,-0.0533585548400878,0.0610342025756835,0.1929083811675698,0.1878531469052531,-0.375220561122121,0.8869651428119693,-0.6349511976141544,-0.6356746090073561,2.4979079235314248,10140,1.8908385574362767,serve,serves_watch-right
820,1761597273703681536,16.93468141555786,0.0234050843864679,-0.3456752002239227,-1.8164961338043213,-0.4909200370311737,0.5840304493904114,-0.6464565396308899,-0.2970896363258362,-0.0020754933357238,0.0589625835418701,0.2005031965888466,0.1927225202763681,-0.3736706635040491,0.8848880251821483,-0.6236850953390592,-0.6494909334779944,2.479737579620228,10150,1.8492423708511099,serve,serves_watch-right
830,1761597273713727488,16.944727420806885,-0.0901300311088562,-0.2799707353115082,-1.67031729221344,-0.5032804608345032,0.5754694938659668,-0.6446268558502197,-0.3098756670951843,0.0648655891418457,0.0087168216705322,0.2076882410164759,0.1974508806877833,-0.3724241327809641,0.8827112584679117,-0.6131781142528252,-0.6628809177386624,2.4623995765530946,10160,1.6960150034141173,serve,serves_watch-right
840,1761597273723773440,16.954773426055908,-0.1381366997957229,-0.1737492233514785,-1.4874422550201416,-0.5138064622879028,0.5681435465812683,-0.6428187489509583,-0.3289364576339721,0.0537131428718566,0.0197870731353759,0.214372221471979,0.2012778657195264,-0.371588291138144,0.8805986549433287,-0.6042481681818894,-0.674315337264329,2.4463638198489477,10170,1.5039132296994728,serve,serves_watch-right
850,1761597273733819392,16.96481943130493,-0.0665486380457878,-0.1828635185956955,-1.3914973735809326,-0.5230956673622131,0.5613698363304138,-0.6412760019302368,-0.3759521842002868,0.0269022583961486,0.0317636728286743,0.2203680318323815,0.2046730313020344,-0.3707707543650228,0.878678558061523,-0.5960401351194247,-0.6842474547659296,2.432223575180423,10180,1.405038336965074,serve,serves_watch-right
860,1761597273743865600,16.974865436553955,0.0265070032328367,-0.2185378968715667,-1.3431884050369265,-0.5321427583694458,0.554165780544281,-0.6400972008705139,-0.4091414213180542,0.0898924469947815,0.0024324059486389,0.2258547112291049,0.208219789808172,-0.36958883710823,0.8769483325160577,-0.5873604620053461,-0.6935647300601996,2.4197357381662115,10190,1.361108564742385,serve,serves_watch-right
870,1761597273753911552,16.98491144180298,0.0562736801803112,-0.1706297546625137,-1.3258302211761477,-0.5408523082733154,0.5466699600219727,-0.6392423510551453,-0.388270616531372,0.1041326522827148,-0.0278871655464172,0.2312501415332631,0.2116763349711956,-0.3682009741953675,0.8752968818955147,-0.5783821683087795,-0.7022158689669029,2.4078976719036933,10200,1.3379488090510856,serve,serves_watch-right
880,1761597273763956992,16.994956970214844,0.0652056634426117,-0.1428929269313812,-1.3634918928146362,-0.5492916703224182,0.5389042496681213,-0.6386399269104004,-0.3610324263572693,0.0255793929100036,-0.0280470848083496,0.2367674673144138,0.2149908917954755,-0.3666864549301981,0.8736482510477187,-0.5691357830016844,-0.7103262247786933,2.3961562263026437,10210,1.3725087645925063,serve,serves_watch-right
890,1761597273774002944,17.005002975463867,0.1021945998072624,-0.0587991289794445,-1.3770993947982788,-0.5573892593383789,0.5306600332260132,-0.6385273337364197,-0.3706655502319336,-0.0461782217025756,-0.011420726776123,0.2424243751348093,0.2181432654027183,-0.3648970204823375,0.8720631644250457,-0.5593790719984341,-0.7176560409244636,2.384682426478531,10220,1.3821374088535097,serve,serves_watch-right
900,1761597273784049152,17.01504898071289,0.1339557319879531,-0.0445384308695793,-1.4432685375213623,-0.5651904940605164,0.5219782590866089,-0.6388257741928101,-0.3868511319160461,-0.0825556516647338,0.063477873802185,0.2482493685618855,0.2211476000291385,-0.3628785657284247,0.8705085137402963,-0.5491685979264047,-0.7243161945842722,2.373336529294554,10230,1.4501558127855796,serve,serves_watch-right
910,1761597273794095104,17.025094985961914,0.2595572173595428,-0.0955463498830795,-1.5522375106811523,-0.5735676288604736,0.5120563507080078,-0.639389157295227,-0.3999431133270263,-0.0406970977783203,0.081131100654602,0.2544627287686676,0.2245099345005034,-0.3604173933541956,0.8688747772149077,-0.537577101575173,-0.731185958329516,2.3616846683760864,10240,1.5766865077196002,serve,serves_watch-right
920,1761597273804140032,17.03514003753662,0.3250992000102997,-0.0366121977567672,-1.6232845783233645,-0.5822169780731201,0.5008735060691833,-0.6404287815093994,-0.3714115023612976,-0.0437202453613281,0.0431693196296691,0.2609216484686507,0.2281372220009448,-0.3574059487801367,0.8672566934973935,-0.5246077267302579,-0.7378227304215519,2.350242181959655,10250,1.6559235384202922,serve,serves_watch-right
930,1761597273814185984,17.045186042785645,0.4300257265567779,-0.0174652691930532,-1.706346035003662,-0.5907996892929077,0.4885644614696502,-0.64207524061203,-0.3460747003555298,-0.0770196616649627,0.0393224954605102,0.2676333621018556,0.2318347432499276,-0.3538573721632125,0.8656847625800187,-0.510443712934842,-0.7438318991409645,2.339069494768279,10260,1.7597852006143788,serve,serves_watch-right
940,1761597273824232192,17.055232048034668,0.5671990513801575,-0.0234137047082185,-1.747734785079956,-0.5994718670845032,0.4748537242412567,-0.6443192958831787,-0.370926022529602,-0.0320894718170166,0.0311296582221984,0.2743854408233583,0.23583088260255,-0.3496056905797542,0.8642177115151657,-0.4947978300403652,-0.7493567301031617,2.328731409973825,10270,1.8376179810921514,serve,serves_watch-right
950,1761597273834278144,17.06527805328369,0.6670264005661011,-0.0200334526598453,-1.770936131477356,-0.6080890893936157,0.4600027799606323,-0.6470124125480652,-0.383625328540802,0.0174752175807952,-0.002859354019165,0.2811825803977721,0.2400231478046762,-0.3447936704999389,0.8628108370276558,-0.4779983235612837,-0.7543960007017355,2.319055910548029,10280,1.892495796573833,serve,serves_watch-right
960,1761597273844324096,17.075324058532715,0.7299339771270752,-0.0458493381738662,-1.778118371963501,-0.6166586875915527,0.4442872107028961,-0.6498775482177734,-0.38460773229599,0.0642271637916565,-0.0304812788963317,0.2878237421229483,0.244469227912126,-0.3395526821787519,0.8614500061386835,-0.460378492459071,-0.7591760566938773,2.310250491286424,10290,1.922657202282732,serve,serves_watch-right
970,1761597273854370048,17.08537006378174,0.7354595065116882,-0.0781508237123489,-1.785139083862305,-0.6254891753196716,0.4278897047042846,-0.6524366736412048,-0.3905019164085388,0.1173678636550903,-0.0725999474525451,0.2945446243937721,0.2492306435576487,-0.3341642695071964,0.8599195592521315,-0.4421566327846691,-0.7643144104862771,2.301416930757163,10300,1.932286155231177,serve,serves_watch-right
980,1761597273864416000,17.09541606903076,0.7311350703239441,-0.0946078225970268,-1.7953267097473145,-0.6344945430755615,0.4109935164451599,-0.6545998454093933,-0.3804285526275635,0.1651630699634552,-0.1008169651031494,0.3012165987792713,0.2542897491184888,-0.3286895131515125,0.8582356201449097,-0.42354360167472,-0.7698029440783314,2.292757726248265,10310,1.940800640428137,serve,serves_watch-right
990,1761597273874462208,17.105462074279785,0.6688699722290039,-0.1249515190720558,-1.7964237928390503,-0.6427493095397949,0.3946348130702972,-0.6566100120544434,-0.3665432929992676,0.1841463148593902,-0.0971589088439941,0.3078333042880393,0.2589715219103888,-0.3234636733243095,0.8564716448346175,-0.4056703695612658,-0.7747312397686831,2.2840876162396153,10320,1.9209732859533164,serve,serves_watch-right
1000,1761597273884508160,17.11550807952881,0.5990858674049377,-0.1208305433392524,-1.8150625228881836,-0.6507613062858582,0.3786101341247558,-0.6581520438194275,-0.3572342991828918,0.2058777809143066,-0.10623699426651,0.3144230655892443,0.2635756414748436,-0.3185150764511472,0.8545257261476261,-0.3882941769712748,-0.7797517471681938,2.275201867387433,10330,1.9151908152247399,serve,serves_watch-right
1010,1761597273894554112,17.125554084777832,0.5900099277496338,-0.0689586475491523,-1.816120982170105,-0.6582466959953308,0.3627136051654815,-0.6596590876579285,-0.3382285237312317,0.2061798274517059,-0.132348358631134,0.3211363451651435,0.2679185470956206,-0.3136719726943485,0.8524675722396161,-0.3711781519819778,-0.7843264614347951,2.2660576754514574,10340,1.9108015155409113,serve,serves_watch-right
1020,1761597273904600064,17.135600090026855,0.6809776425361633,-0.1037696301937103,-1.8413435220718384,-0.6653783321380615,0.3463233411312103,-0.6613107323646545,-0.3289454579353332,0.1917320787906646,-0.1414694190025329,0.3276918116027115,0.2723071981303497,-0.3085343039559757,0.850454891517286,-0.3536490531504549,-0.7884641028404213,2.257627322604045,10350,1.9659716813984307,serve,serves_watch-right
1030,1761597273914644992,17.145644903182983,0.8098341226577759,-0.1435846835374832,-1.8973371982574463,-0.6726363301277161,0.3287259638309479,-0.6629477143287659,-0.3314530253410339,0.2460115849971771,-0.1481180191040039,0.3343047985638532,0.2770639536239635,-0.3029219715926241,0.8483596974789472,-0.3349542533785375,-0.7926522647233516,2.2495837802715055,10360,2.0679304416393856,serve,serves_watch-right
1040,1761597273924690944,17.155690908432007,0.8842108845710754,-0.1249305754899978,-1.9502075910568235,-0.6797563433647156,0.309941828250885,-0.6647310853004456,-0.3192670941352844,0.302851140499115,-0.1702908873558044,0.3408704440292727,0.2820920389195755,-0.2967465946622156,0.8462700452450637,-0.3151318500190766,-0.7965731775599206,2.2422623062665497,10370,2.1449350072442486,serve,serves_watch-right
1050,1761597273934736896,17.16573691368103,0.926655411720276,-0.1062547266483306,-1.9585533142089844,-0.686482310295105,0.2904135584831238,-0.6666347980499268,-0.3084517121315002,0.3031533360481262,-0.1912447810173034,0.3475265458250755,0.2871347328849698,-0.2902348341831148,0.8441223687306737,-0.2946589832063102,-0.8000651312640602,2.235150179079969,10380,2.1693112740232974,serve,serves_watch-right
1060,1761597273944782848,17.175782918930054,0.9591215252876282,-0.0979206264019012,-1.9642043113708496,-0.6927053928375244,0.2704484760761261,-0.668593168258667,-0.2948586940765381,0.2940046489238739,-0.194993257522583,0.3539724334937112,0.2921871455697215,-0.28342561484323,0.8420214027835186,-0.2738588383784332,-0.8031089460164608,2.228796823543561,10390,2.1880587574726693,serve,serves_watch-right
1070,1761597273954829056,17.185828924179077,0.9793530106544496,-0.1293749511241912,-1.9928468465805056,-0.6986755132675171,0.2501004040241241,-0.6703001260757446,-0.2716003060340881,0.3148410320281982,-0.1916688680648803,0.360559732720834,0.2972656188391778,-0.2765557615575367,0.8397301339974443,-0.2527839381217689,-0.8061226742668693,2.2221899430941363,10400,2.224254650749816,serve,serves_watch-right
1080,1761597273964875008,17.1958749294281,0.9920458793640136,-0.1250497102737426,-1.999976634979248,-0.7044010758399963,0.2293176054954528,-0.6717384457588196,-0.2490595579147339,0.3505774140357971,-0.2089378237724304,0.3670266063655125,0.3024797264529182,-0.2695121623238155,0.8373533364663197,-0.2313765439380651,-0.8091287041812913,2.2159657439460263,10410,2.2360006702292337,serve,serves_watch-right
1090,1761597273974920960,17.205920934677124,0.9707510471343994,-0.1255614012479782,-2.000035285949707,-0.7096319198608398,0.2084917724132537,-0.6730183959007263,-0.2305231094360351,0.3360943794250488,-0.2172404527664184,0.3735198274287865,0.307568569332708,-0.262473598560357,0.8348605330011207,-0.2100325952589691,-0.8118726678972313,2.2096616900057766,10420,2.226716058692669,serve,serves_watch-right
1100,1761597273984966912,17.215966939926147,1.0311689376831057,-0.1795316934585571,-2.018341064453125,-0.7147091627120972,0.1873181164264679,-0.6738715171813965,-0.2600070238113403,0.3526446223258972,-0.211672306060791,0.379894938142013,0.3128346234645375,-0.2553404546380944,0.8322353209097813,-0.188431215874528,-0.8147993150824944,2.2036286167354326,10430,2.2735966351700063,serve,serves_watch-right
1110,1761597273995013120,17.22601294517517,1.054011344909668,-0.1803692430257797,-2.031283378601074,-0.719534158706665,0.1656431853771209,-0.6744131445884705,-0.2832430005073547,0.3923859596252441,-0.209452211856842,0.3862738713992272,0.3182243423450955,-0.2480457641857519,0.8294571982600422,-0.1664101771326369,-0.817756098665072,2.197694682910616,10440,2.2955576976432055,serve,serves_watch-right
1120,1761597274005059072,17.236058950424194,1.0684086084365845,-0.1805159747600555,-2.0681748390197754,-0.7239469885826111,0.1435573101043701,-0.6747533679008484,-0.2651277184486389,0.3874790370464325,-0.2057397961616516,0.3926352199340417,0.3236450106710271,-0.2405768563389872,0.8265678182423292,-0.1440550327246625,-0.8205546274188218,2.19191915441801,10450,2.3348297874747628,serve,serves_watch-right
1130,1761597274015104000,17.2461040019989,1.037745475769043,-0.1878178566694259,-2.0831446647644043,-0.7279757261276245,0.1212773323059082,-0.6747910976409912,-0.2659359574317932,0.3999018669128418,-0.188978374004364,0.3991149950901071,0.3290336146073375,-0.2331122414935909,0.8234699111424774,-0.1215766147765887,-0.8232940942813086,2.1858356906340566,10460,2.33488391876329,serve,serves_watch-right
1140,1761597274025149952,17.256150007247925,1.0492011308670044,-0.1593960672616958,-2.1147143840789795,-0.7314918637275696,0.0988156050443649,-0.6746518611907959,-0.2461387515068054,0.3974154591560364,-0.1722567081451416,0.4056109406313234,0.3343522266527214,-0.2255718716847814,0.820247328393949,-0.0989771332390443,-0.8257988079788419,2.1797306559571776,10470,2.366061505012419,serve,serves_watch-right
1150,1761597274035196160,17.26619601249695,1.1179993152618408,-0.1708481907844543,-2.1620993614196777,-0.7344725728034973,0.0757386460900306,-0.6743987202644348,-0.2093140482902526,0.3887541592121124,-0.1437470316886901,0.4121637358486124,0.3396870867134776,-0.2177460205127842,0.8168967815278836,-0.075811247372444,-0.8280120817030956,2.1737091198633656,10480,2.4400379550063653,serve,serves_watch-right
1160,1761597274045242112,17.27624201774597,1.2134380340576172,-0.1940001249313354,-2.188955307006836,-0.7371179461479187,0.0517171248793602,-0.6737822890281677,-0.1883733868598938,0.4184214174747467,-0.149490475654602,0.4185311335045649,0.3453097148562949,-0.209451833776438,0.8134635372967264,-0.0517402085469182,-0.8302583159646005,2.168416047169321,10490,2.5102974419467468,serve,serves_watch-right
1170,1761597274055288064,17.286288022994995,1.2537009716033936,-0.1936906576156616,-2.210303783416748,-0.739328145980835,0.0270269699394702,-0.6728026866912842,-0.18544602394104,0.4586450159549713,-0.1623108386993408,0.4248356417250871,0.3510813473154672,-0.2008495909430735,0.8098864123640152,-0.0270302617209032,-0.832473368358484,2.163435728204101,10500,2.548475036572513,serve,serves_watch-right
1180,1761597274065334016,17.29633402824402,1.189719319343567,-0.1966670155525207,-2.240654706954956,-0.7409694790840149,0.0020860042423009,-0.6715354919433594,-0.1889316439628601,0.4534499049186706,-0.1631355285644531,0.4310922075490268,0.3568311947935726,-0.1921035206117992,0.8061806939140022,-0.0020860056412974,-0.8345152896362468,2.158573694324585,10510,2.5445320767530237,serve,serves_watch-right
1190,1761597274075379968,17.306380033493042,1.008453369140625,-0.1604452729225158,-2.27523422241211,-0.7419828772544861,-0.0221109054982662,-0.6700541377067566,-0.2058473229408264,0.4389810264110565,-0.1788990497589111,0.4377784143424473,0.3621619167531956,-0.1838795173106261,0.8021079169145773,0.0221127081542572,-0.8362938499648462,2.1522161504589494,10520,2.4938748264837782,serve,serves_watch-right
1200,1761597274085426176,17.316426038742065,0.8357521295547485,-0.0724943652749061,-2.2776730060577393,-0.7419928908348083,-0.0453338809311389,-0.6688731908798218,-0.2332878112792968,0.4190368950366974,-0.2032428383827209,0.4447940909770482,0.3668207589819581,-0.1760850390744779,0.7978688431428139,0.0453494216889873,-0.8371779472301405,2.1446382043764114,10530,2.4272476959667726,serve,serves_watch-right
1210,1761597274095472128,17.32647204399109,0.6849493384361267,0.0055607557296752,-2.2987122535705566,-0.7408822178840637,-0.067406915128231,-0.6682438850402832,-0.2560355067253113,0.3561794757843017,-0.208831250667572,0.4522495528197485,0.3706600854016461,-0.1687872780980006,0.7934685637777825,0.0674580681754927,-0.8369010377993746,2.135516786930604,10540,2.3985963693259857,serve,serves_watch-right
1220,1761597274105517056,17.336517095565796,0.6098766922950745,0.0143443932756781,-2.3438191413879395,-0.7390262484550476,-0.089019127190113,-0.6677693128585815,-0.2694118618965149,0.4026482701301574,-0.1613932847976684,0.4599498279041743,0.3741206531426423,-0.1617067935259977,0.7888794579967982,0.0891371166306313,-0.8360068506612183,2.125492570761579,10550,2.4219090629005304,serve,serves_watch-right
1230,1761597274115563264,17.34656310081482,0.529843807220459,0.0785495191812515,-2.3671178817749023,-0.7363755106925964,-0.1103313937783241,-0.6675163507461548,-0.256162941455841,0.4516552686691284,-0.1587623357772827,0.4679380042391302,0.37721407219609,-0.1547623380531153,0.7840867735504061,0.1105564750757788,-0.8344076545550037,2.1145167639983073,10560,2.426963442912146,serve,serves_watch-right
1240,1761597274125609216,17.356609106063843,0.5247582197189331,0.1342378109693527,-2.42876935005188,-0.7327338457107544,-0.1315087378025055,-0.6676874756813049,-0.2149437665939331,0.428673654794693,-0.13465017080307,0.4760639688265614,0.3799142655178338,-0.1477207205429403,0.7792347620273951,0.1318907899857787,-0.8318125057802116,2.1030666617185236,10570,2.4884355597057075,serve,serves_watch-right
1250,1761597274135655168,17.366655111312866,0.5815497040748596,0.1732882410287857,-2.483323812484741,-0.7281935811042786,-0.1532264351844787,-0.6680237650871277,-0.2017074823379516,0.4318824708461761,-0.0961516499519348,0.4843961472490035,0.3824786594618841,-0.1403502816084086,0.7741913354548958,0.1538324426428615,-0.8284664189737753,2.0911599284688784,10580,2.5563892564400588,serve,serves_watch-right
1260,1761597274145700864,17.37670087814331,0.6902410387992859,0.1980375349521637,-2.5651447772979736,-0.7227779626846313,-0.1758821755647659,-0.6683244705200195,-0.1994479894638061,0.4561250805854797,-0.0925397872924804,0.4926680167075568,0.3851199632864673,-0.132364554383674,0.7690517868262058,0.1768018493689577,-0.8245223079829711,2.0795731671084803,10590,2.6637603656094364,serve,serves_watch-right
1270,1761597274155746816,17.386746883392334,0.7649276852607727,0.2349423915147781,-2.649378776550293,-0.7164269685745239,-0.1996348202228546,-0.6684896349906921,-0.193698763847351,0.4713938236236572,-0.1050546169281005,0.501071004074288,0.3878573413870494,-0.1237814759818255,0.7636575108128386,0.2009852321384384,-0.8199982043201619,2.067818528302171,10600,2.7675838185399577,serve,serves_watch-right
1280,1761597274165793024,17.396792888641357,1.2041330337524414,0.5738722085952759,-2.753753423690796,-0.7084136009216309,-0.2249732166528701,-0.668982207775116,-0.1979584693908691,0.4699683487415313,-0.116113007068634,0.5093720241790098,0.3905319508993872,-0.1139898717147271,0.7583081136312716,0.2269155427852203,-0.8140178395776592,2.056766126945963,10610,3.0598077706386486,serve,serves_watch-right
1290,1761597274175838976,17.40683889389038,0.8629212379455566,0.2699316143989563,-2.7463221549987793,-0.6984614729881287,-0.2523139119148254,-0.6696933507919312,-0.2159671783447265,0.4587958753108978,-0.132186472415924,0.5179386726221055,0.39314315702794,-0.1029163171831716,0.7527192090373205,0.2550707932881207,-0.8064220081788802,2.0455105290255604,10620,2.891328676990331,serve,serves_watch-right
1300,1761597274185884928,17.416884899139404,0.8313678503036499,0.3851058781147003,-3.006138801574707,-0.6886478662490845,-0.2778007984161377,-0.6697692275047302,-0.2436336278915405,0.4404594898223877,-0.1016693711280822,0.5269743823208218,0.395523411603493,-0.0931483874925603,0.7464466521936268,0.281504046017534,-0.7992948141528528,2.031689918787658,10630,3.1426659915126236,serve,serves_watch-right
1310,1761597274195930880,17.426930904388428,0.5768303871154785,0.5620971322059631,-2.936941623687744,-0.6767368316650391,-0.3030481338500976,-0.6709613800048828,-0.1966915130615234,0.4323358535766601,-0.1604290008544922,0.5365492668291307,0.3970070542132643,-0.0830946157233885,0.7399970471996312,0.3078895930164373,-0.7896835466028008,2.0160343385320285,10640,3.0453756061418047,serve,serves_watch-right
1320,1761597274205976064,17.436975955963135,0.4433072209358215,0.5691262483596802,-2.966331243515014,-0.6636496782302856,-0.3262849152088165,-0.6731324791908264,-0.2525490522384643,0.279699832201004,-0.135446012020111,0.5461004163939643,0.3975269924828445,-0.0735258936380405,0.7337170105804818,0.3323707171408466,-0.7783045378102924,1.9992612808783072,10650,3.05279331513929,serve,serves_watch-right
1330,1761597274216022016,17.447021961212158,0.3394720256328583,0.6098464131355286,-3.026606798171997,-0.6495057940483093,-0.348685473203659,-0.6756927371025085,-0.2942197322845459,0.3682777285575866,-0.1547362804412841,0.5561521578863171,0.3975181622738638,-0.0642879088902176,0.7270084227577391,0.3561681771325709,-0.7656399771362381,1.9802511017600264,10660,3.1060429189794676,serve,serves_watch-right
1340,1761597274226067968,17.45706796646118,0.2093414664268493,0.6468473076820374,-3.1450045108795166,-0.6341003775596619,-0.370464414358139,-0.6787288784980774,-0.2478576302528381,0.3664360642433166,-0.1569033861160278,0.5665124801960039,0.3969892284841103,-0.0550917700973233,0.720019558336903,0.3795089467598009,-0.7514170874178251,1.9595400131487704,10670,3.217652663429313,serve,serves_watch-right
1350,1761597274236113920,17.467113971710205,0.1166189163923263,0.7024613618850708,-3.252084732055664,-0.6172193288803101,-0.3916342258453369,-0.6823949813842773,-0.1982560753822326,0.3383505642414093,-0.1375817656517028,0.5778872029997725,0.3958110460011095,-0.0462181033015614,0.7122105704731191,0.4024070296030537,-0.7352901241426488,1.9350797561324635,10680,3.329130072717422,serve,serves_watch-right
1360,1761597274246160128,17.47715997695923,0.1325297206640243,0.72971510887146,-3.320744276046753,-0.5990387201309204,-0.4125686585903168,-0.6862505078315735,-0.2483123540878296,0.3798233270645141,-0.1063978672027587,0.5894840125806463,0.3943266256955007,-0.037165400790232,0.7040126795400977,0.4252720958897887,-0.7176481923272546,1.9090181351757312,10690,3.4025565114883607,serve,serves_watch-right
1370,1761597274256206080,17.487205982208252,0.1120735332369804,0.7777690887451172,-3.338268518447876,-0.5796573758125305,-0.4331440031528473,-0.6902053952217102,-0.2882625460624695,0.4111866056919098,-0.0721389055252075,0.6007324965953073,0.39259426554356,-0.0276953722227107,0.6958613462589028,0.4479780515257993,-0.6985619732886247,1.8828354309228823,10700,3.429507535130927,serve,serves_watch-right
1380,1761597274266252032,17.497251987457275,0.0680472180247306,0.8534129858016968,-3.3547935485839844,-0.5591309070587158,-0.4529125094413757,-0.6944370865821838,-0.3057982325553894,0.4092266261577606,-0.0713862776756286,0.6117766315887312,0.3904555745302295,-0.0180531192661796,0.6877119998230449,0.4700294017319262,-0.67787760809525,1.8559592725952576,10710,3.462309041930918,serve,serves_watch-right
1390,1761597274276297984,17.5072979927063,0.1124183163046836,0.920482873916626,-3.429266452789306,-0.5371342897415161,-0.4721435606479645,-0.6989758014678955,-0.3200128674507141,0.3986725211143493,-0.1083971858024597,0.6232976112657034,0.3878685034164228,-0.0083741649174863,0.6789609132193619,0.4917208601257077,-0.6552106333749167,1.826382554350457,10720,3.55243508079187,serve,serves_watch-right
1400,1761597274286343936,17.517343997955322,0.1018982976675033,0.9560776352882384,-3.4666900634765625,-0.5138823390007019,-0.4912709593772888,-0.7032622694969177,-0.3353760838508606,0.4080342352390289,-0.104827880859375,0.6347556995696172,0.3851830344462975,0.0016993800383796,0.6698629613536088,0.5135483343644127,-0.631042193521352,1.7956049907388,10730,3.5975557958109583,serve,serves_watch-right
1410,1761597274296389120,17.52738904953003,-0.0221756510436534,1.0807760953903198,-3.5355513095855713,-0.4891001582145691,-0.5091109275817871,-0.7082281112670898,-0.3355915546417236,0.3805251717567444,-0.1363915801048278,0.6463254539002201,0.3817671689691468,0.0118222396075101,0.6605887588059833,0.5341515425930579,-0.6043872638714046,1.7628037022197514,10740,3.6971193909013276,serve,serves_watch-right
1420,1761597274306435072,17.537435054779053,-0.042116068303585,1.181867241859436,-3.635878086090088,-0.4623202085494995,-0.5260156989097595,-0.7138400077819824,-0.3483487367630005,0.373839795589447,-0.1709866523742675,0.6581099695003558,0.3776025017507791,0.0222791329934172,0.6510079423912396,0.5539089782190993,-0.5747231543322431,1.7275740478242794,10750,3.823374608575506,serve,serves_watch-right
1430,1761597274316481024,17.547481060028076,-0.137397214770317,1.2625117301940918,-3.688253164291382,-0.4339115023612976,-0.5419230461120605,-0.7197501063346863,-0.383501797914505,0.3701090216636657,-0.1611855030059814,0.6699818517759335,0.372877381639763,0.0329756425154626,0.6410923523077036,0.572723571239817,-0.5425227920167757,1.690154419996384,10760,3.900772393694576,serve,serves_watch-right
1440,1761597274326527232,17.5575270652771,-0.2526670694351196,1.400481104850769,-3.7758610248565674,-0.4036862850189209,-0.556208074092865,-0.7264089584350586,-0.4026644229888916,0.405390202999115,-0.1621713638305664,0.6820009969875496,0.3672561510475582,0.0438000179938054,0.6309350915560233,0.5898159261699278,-0.5072307715724739,1.6501925041662613,10770,4.035134997995959,serve,serves_watch-right
1450,1761597274336573184,17.567573070526123,-0.3005777597427368,1.5382297039031982,-3.820220232009888,-0.3713955879211426,-0.5689661502838135,-0.7337185144424438,-0.4098238945007324,0.4374048709869385,-0.1321567296981811,0.693707575304007,0.3606866747240264,0.0551892267463849,0.6209904363773129,0.6052480995295461,-0.4685814706457456,1.6090467638806538,10780,4.129234824114484,serve,serves_watch-right
1460,1761597274346619136,17.577619075775146,-0.2789555490016937,1.633199691772461,-3.8355212211608887,-0.337541252374649,-0.5804200172424316,-0.7410658001899719,-0.4024184346199035,0.4241089820861816,-0.087150752544403,0.7049955719562048,0.3535102373527589,0.0670642569969595,0.6111580761081394,0.6192444004238549,-0.4274024297220258,1.5670721726741197,10790,4.178083348797629,serve,serves_watch-right
1470,1761597274356665088,17.58766508102417,-0.2526746690273285,1.710931420326233,-3.882470607757568,-0.3024170994758606,-0.5908600091934204,-0.7479494214057922,-0.3826262056827545,0.4488617181777954,-0.0659543275833129,0.7165766606522177,0.346103185769277,0.0789802028760286,0.6004103256951465,0.6321243851270684,-0.3842320848296404,1.5218907172197051,10800,4.250259854824058,serve,serves_watch-right
1480,1761597274366711040,17.597711086273193,-0.2312261015176773,1.860199809074402,-3.944572687149048,-0.2654941380023956,-0.6001888513565063,-0.7545105814933777,-0.3498470485210418,0.4780422449111938,-0.0705168843269348,0.7279288420605411,0.3381986152796065,0.0914680016136739,0.5893852041058386,0.6437371627089976,-0.3383450560271287,1.4750160722810983,10810,4.367317543287386,serve,serves_watch-right
1490,1761597274376755968,17.60775589942932,-0.1355423629283905,1.979392409324646,-3.97835636138916,-0.2267981171607971,-0.6085389256477356,-0.7604228854179382,-0.3285912871360779,0.4831421971321106,-0.0546405911445617,0.7389176167054964,0.3299062924627138,0.1046440997255765,0.5781109111352628,0.6542180513467082,-0.2898529169720867,1.4267628841364357,10820,4.445636667615319,serve,serves_watch-right
1500,1761597274386801920,17.617801904678345,-0.0232530981302261,2.025923252105713,-3.997814416885376,-0.1869082152843475,-0.6163083910942078,-0.7650028467178345,-0.3349271118640899,0.537908673286438,-0.0395625829696655,0.7493836248724961,0.3216626197855928,0.1184556674647847,0.5665030136906848,0.664046319725756,-0.2396290344398627,1.3775785115009576,10830,4.481899802745684,serve,serves_watch-right
1510,1761597274396847872,17.627847909927368,-0.0551273748278617,2.106760263442993,-3.959922790527344,-0.1462491452693939,-0.622695803642273,-0.768674910068512,-0.3305269777774811,0.6126097440719604,-0.0187548995018005,0.7593492049561186,0.3132132714023523,0.1325141107417233,0.5547308356129407,0.6721833006948079,-0.1880142077771714,1.3277051307381682,10840,4.485807211864512,serve,serves_watch-right
1520,1761597274406894080,17.63789391517639,-0.0849521160125732,2.2309675216674805,-3.915077209472656,-0.1047593057155609,-0.6271682381629944,-0.7718065977096558,-0.3261794149875641,0.6709610223770142,0.0108813643455505,0.7687938625193858,0.3042366041368767,0.14675415563983,0.5430094343784063,0.6779122149845986,-0.1349081275688764,1.2775280163253784,10850,4.506912746091536,serve,serves_watch-right
1530,1761597274416940032,17.647939920425415,-0.0470311641693115,2.314429998397827,-3.831166982650757,-0.0625874027609825,-0.6298510432243347,-0.7741901278495789,-0.3075450360774994,0.6759936809539795,0.0546620488166809,0.7776004473135775,0.294801673524568,0.1612355265502994,0.53144379341892,0.6813614484673031,-0.0806669902595412,1.227661461970431,10860,4.476230400330192,serve,serves_watch-right
1540,1761597274426985984,17.65798592567444,-0.0576811470091342,2.3629536628723145,-3.738699197769165,-0.0205194316804409,-0.6311100721359253,-0.7754218578338623,-0.2687261700630188,0.6681126952171326,0.0946967601776123,0.7856782487636434,0.2852955387299788,0.1757712478120521,0.5200199154731903,0.6829834833726144,-0.0264561077458417,1.1787578846064517,10870,4.423205717463498,serve,serves_watch-right
1550,1761597274437031936,17.668031930923462,-0.1566012352705001,2.436922550201416,-3.696469783782959,0.0217601731419563,-0.6302837133407593,-0.7760598659515381,-0.2081615328788757,0.6626018285751343,0.1064584255218505,0.7932113040425656,0.2752594497320155,0.1902690101048276,0.5087688833402164,0.681918601203642,0.0280319524001085,1.1306703728841518,10880,4.430237502097246,serve,serves_watch-right
1560,1761597274447077888,17.678077936172485,-0.1843987852334976,2.4381847381591797,-3.6219019889831543,0.0639371797442436,-0.6273002624511719,-0.7761484384536743,-0.1667356491088867,0.6557273864746094,0.1497751474380493,0.8002809508820005,0.2647302154666002,0.2045573423740382,0.4976188870485024,0.6780817526128604,0.0821919318604443,1.0835973108469112,10890,4.3700024882359125,serve,serves_watch-right
1570,1761597274457123072,17.688122987747192,-0.2099651992321014,2.410688877105713,-3.528939962387085,0.1052623763680458,-0.6228496432304382,-0.7752277851104736,-0.1153789460659027,0.6099559664726257,0.1805927753448486,0.8067763604804418,0.2542127622490717,0.2185451360176075,0.4865446594970379,0.6723798846057577,0.1349571521190652,1.0381266907661528,10900,4.278892789638733,serve,serves_watch-right
1580,1761597274467169024,17.698168992996216,-0.3168966770172119,2.392038345336914,-3.4331979751586914,0.1456181108951568,-0.6163811087608337,-0.7738667130470276,-0.0500523149967193,0.5448784232139587,0.2032948136329651,0.8128007702657699,0.2433806842935329,0.2320183045444473,0.4756975722214402,0.6641386634041042,0.1859946367814544,0.9947158624354844,10910,4.1963221141972,serve,serves_watch-right
1590,1761597274477214976,17.70821499824524,-0.340737909078598,2.3513612747192383,-3.3498001098632812,0.1848751604557037,-0.6081949472427368,-0.771958589553833,-0.0494381487369537,0.5657449960708618,0.224076509475708,0.8183650888352857,0.2323711410132871,0.2449986787960137,0.4650353086165584,0.6537846102476892,0.2350612251268091,0.9534668451613968,10920,4.1068434281054085,serve,serves_watch-right
1600,1761597274487261184,17.718261003494263,-0.5153664350509644,2.4683661460876465,-3.2716121673583984,0.2234648317098617,-0.5981924533843994,-0.7695643305778503,-0.0378111600875854,0.5181906819343567,0.2198206782341003,0.8234543169107439,0.2209505938539133,0.2576794186212442,0.4546483228395883,0.641243607590431,0.2826064007358085,0.9145365204788052,10930,4.130602881800215,serve,serves_watch-right
1610,1761597274497307136,17.728307008743286,-0.6497460007667542,2.5785157680511475,-3.187072992324829,0.2622093558311462,-0.5857359170913696,-0.7669157385826111,-0.0247368216514587,0.4316068887710571,0.2123045325279235,0.8280338791396046,0.2084915377006477,0.2703209266084412,0.4447672708558335,0.6257877345714061,0.3294416328007349,0.8783750621324483,10940,4.1507044811702904,serve,serves_watch-right
1620,1761597274507353088,17.73835301399231,-0.6352474689483643,2.562233209609986,-3.0606002807617188,0.3001189529895782,-0.5719784498214722,-0.7633932828903198,-0.0783477425575256,0.4562100172042846,0.2503318190574646,0.8320126106384098,0.1957948881429538,0.2827856600296357,0.435260393239722,0.6089157586077925,0.3745769547201698,0.845020297914341,10950,4.04176353165698,serve,serves_watch-right
1630,1761597274517399040,17.748399019241333,-0.6711444854736328,2.6137866973876953,-2.9417593479156494,0.3368992507457733,-0.5573723316192627,-0.758837878704071,-0.0661778450012207,0.4757988452911377,0.234088122844696,0.8352524692430886,0.1830245436278354,0.2950984178302347,0.4263475058813236,0.5912175870403751,0.4178258672857757,0.814985509910534,10960,3.9920250351008133,serve,serves_watch-right
1640,1761597274527444992,17.758445024490356,-0.6636412739753723,2.6184725761413574,-2.7933292388916016,0.3726592063903808,-0.5420811772346497,-0.7531753778457642,-0.0434355735778808,0.4745152592658996,0.2547775506973266,0.837723656386792,0.1701516841066527,0.3073446243596596,0.4180990639185986,0.572911772054153,0.4594661962348437,0.7882838844096595,10970,3.885808359836438,serve,serves_watch-right
1650,1761597274537490176,17.768490076065063,-0.6616633534431458,2.5717382431030273,-2.6372313499450684,0.4066304564476013,-0.526562511920929,-0.7465812563896179,-0.0515736639499664,0.4777344465255737,0.3025962710380554,0.83965487408133,0.1576381606020178,0.3191544833933821,0.4102076819002878,0.5545520581602923,0.4987316001631072,0.764173604682585,10980,3.742542608636722,serve,serves_watch-right
1660,1761597274547536128,17.778536081314087,-0.7298740744590759,2.6276421546936035,-2.536893844604492,0.4394909739494324,-0.5103864669799805,-0.7391571998596191,-0.0266949534416198,0.4481763839721679,0.2972779273986816,0.8412185362176872,0.1451812784357434,0.3306717399374088,0.4024052641727197,0.5356341343754261,0.536427562169292,0.7418222093778561,10990,3.7246543244283083,serve,serves_watch-right
1670,1761597274557582080,17.78858208656311,-0.6782855987548828,2.618842601776123,-2.44181227684021,0.4713435769081116,-0.4938386976718902,-0.7307246923446655,-0.0153499543666839,0.3942903280258178,0.317531943321228,0.8422521920771856,0.132769083491434,0.3420672953941883,0.3949348338236443,0.516498793195316,0.5728775425147845,0.7216337551920322,11000,3.6442907570175262,serve,serves_watch-right
1680,1761597274567628032,17.798628091812134,-0.6820129752159119,2.696599245071411,-2.430994987487793,0.5025348663330078,-0.4770428836345672,-0.7210330963134766,-0.01545912027359,0.3521954715251922,0.2864018082618713,0.8428195667457419,0.1204618800081468,0.35351433747356,0.3875198018617378,0.4972869720105468,0.6086861843465823,0.702768034236262,11010,3.6941204387612134,serve,serves_watch-right
1690,1761597274577674240,17.808674097061157,-0.6979203820228577,2.698418378829956,-2.3563547134399414,0.5332120060920715,-0.4596120715141296,-0.7102406620979309,0.0008303523063659,0.3070546984672546,0.2594807147979736,0.842837642208971,0.1078887674610446,0.3650201307095525,0.3804538591979294,0.4775583427321859,0.6439799088127519,0.6859732023628862,11020,3.6497893284956664,serve,serves_watch-right
1700,1761597274587720192,17.81872010231018,-0.7041758894920349,2.658365488052368,-2.2410683631896973,0.5624895095825195,-0.4420714974403381,-0.6986976265907288,-0.038151741027832,0.3112426400184631,0.2545753121376037,0.8423473071853553,0.0954047992530564,0.3762301371031986,0.373898201205904,0.4579067730428246,0.6778152426681948,0.671571312559105,11030,3.5475566464680384,serve,serves_watch-right
1710,1761597274597766144,17.828766107559204,-0.7975971698760986,2.665752410888672,-2.1374123096466064,0.590480625629425,-0.4242760837078094,-0.686529278755188,-0.0160635113716125,0.2584130465984344,0.221105694770813,0.8416447420396266,0.0831379865916166,0.3870703289504779,0.3672856838094963,0.4381622942767512,0.7103258129692286,0.658170284723796,11040,3.508693281405767,serve,serves_watch-right
1720,1761597274607811072,17.838810920715332,-0.8663821220397949,2.6280813217163086,-2.022500991821289,0.6171621680259705,-0.4060141742229461,-0.6739906072616577,-0.0113883018493652,0.2161642909049987,0.2326606512069702,0.8405570468022064,0.0707080026467337,0.3974985332518331,0.3611912030686482,0.4180883106916815,0.7414128443840482,0.647159442356554,11050,3.427526758008231,serve,serves_watch-right
1730,1761597274617857024,17.848856925964355,-0.934536337852478,2.607546329498291,-1.9325416088104248,0.6424914598464966,-0.387563019990921,-0.6610594987869263,-0.0318347215652465,0.228780061006546,0.2387419939041137,0.8390778517654353,0.0582167195821249,0.4075304578607613,0.3556375875782082,0.3979865216305145,0.7711549389679455,0.6384381814410718,11060,3.3774802881779067,serve,serves_watch-right
1740,1761597274627902976,17.85890293121338,-0.991101861000061,2.5438480377197266,-1.837403655052185,0.66639244556427,-0.3690057396888733,-0.6478856801986694,-0.034648060798645,0.2233758568763733,0.2258123159408569,0.8372431754068941,0.0456745103168652,0.4170983218302864,0.3506659945731923,0.3779390372848344,0.7994785702904137,0.6320211822336106,11070,3.2908202517742318,serve,serves_watch-right
1750,1761597274637948928,17.868948936462402,-1.110415816307068,2.5759024620056152,-1.7675089836120603,0.689090371131897,-0.350261241197586,-0.6344064474105835,-0.0577732324600219,0.2279315292835235,0.204856276512146,0.8351334377569816,0.0330702923008203,0.4262664953321381,0.3460570154363376,0.3578499932130929,0.8266924408393206,0.627347307325331,11080,3.31547655488933,serve,serves_watch-right
1760,1761597274647994880,17.878994941711426,-1.1910187005996704,2.583437442779541,-1.6666314601898191,0.710869550704956,-0.3313099145889282,-0.6204016208648682,-0.0754478573799133,0.1876179277896881,0.1867774128913879,0.8325290432276309,0.0201001880092326,0.4351955466036046,0.3421932182737056,0.3376915568101292,0.8532498933037614,0.6252933281988547,11090,3.297019106712588,serve,serves_watch-right
1770,1761597274658041088,17.88904094696045,-1.1895735263824463,2.5418667793273926,-1.5668522119522097,0.7316663861274719,-0.3125154674053192,-0.6058038473129272,-0.1087874174118042,0.1743013560771942,0.1619256734848022,0.8296287031664578,0.0072013643853142,0.4438988747844059,0.3385529679950838,0.3178400004222378,0.8792267739663149,0.6244313553953041,11100,3.214218062393669,serve,serves_watch-right
1780,1761597274668087040,17.899086952209473,-1.2803404331207275,2.521554470062256,-1.4844624996185305,0.7513570785522461,-0.2938805520534515,-0.5908440351486206,-0.0944510102272033,0.178173154592514,0.1420525312423706,0.8263950543567913,-0.0057477034340593,0.452266457385757,0.3353999533465532,0.2982841413237139,0.904422319836932,0.6253665425063742,11110,3.193921959433012,serve,serves_watch-right
1790,1761597274678132992,17.909132957458496,-1.245535969734192,2.4606432914733887,-1.3804600238800049,0.770013689994812,-0.2755458652973175,-0.5754594206809998,-0.0560091137886047,0.14226034283638,0.1458635330200195,0.8229345450882586,-0.0185458006603175,0.4603545790707926,0.3324283376975126,0.2791574932495199,0.9290019490381172,0.6272618760042703,11120,3.084119831865401,serve,serves_watch-right
1800,1761597274688178176,17.919178009033203,-1.172900676727295,2.385292053222656,-1.3068861961364746,0.7873992323875427,-0.2582553327083587,-0.559738039970398,-0.0511931777000427,0.1383212804794311,0.1708983778953552,0.8192229182358916,-0.0308292019687311,0.468167222763055,0.3297617765365501,0.2612158352434114,0.9528126425628264,0.6300054202772679,11130,2.9619699030014743,serve,serves_watch-right
1810,1761597274698224128,17.929224014282227,-1.1655319929122925,2.3874588012695312,-1.287229299545288,0.803787887096405,-0.2415096908807754,-0.543689489364624,-0.0259709954261779,0.1458981037139892,0.1616856455802917,0.8154553057266622,-0.0426478353749349,0.4757482681462789,0.3269213105374765,0.2439212903210432,0.976079199821668,0.6326214651773667,11140,2.952182857458071,serve,serves_watch-right
1820,1761597274708270080,17.93927001953125,-1.2098504304885864,2.40708589553833,-1.2625694274902344,0.8196490406990051,-0.2247542738914489,-0.5269355177879333,-0.0233538746833801,0.1523055583238601,0.1568946838378906,0.8113824839468335,-0.0546156610317149,0.4832694581882825,0.3242318003020854,0.2266908484230619,0.9994430520021224,0.6361972723650051,11150,2.975211275167866,serve,serves_watch-right
1830,1761597274718316032,17.949316024780273,-1.3138561248779297,2.4727628231048584,-1.2044631242752075,0.8350475430488586,-0.2079488337039947,-0.5093653202056885,-0.0451762080192565,0.1105977445840835,0.1572229266166687,0.8068902539325853,-0.0669145915969878,0.4907543052289081,0.3218864208960783,0.2094774793761474,1.0230682648428238,0.6412633288033038,11160,3.0481970595661223,serve,serves_watch-right
1840,1761597274728361984,17.959362030029297,-1.4059070348739624,2.5144131183624268,-1.1326539516448977,0.8498923778533936,-0.1912648528814315,-0.491020143032074,-0.0681082606315612,0.0893361568450927,0.1330794692039489,0.8018791756179083,-0.0796279803761603,0.4981458713176981,0.320156114501969,0.1924506302137608,1.046902362232672,0.6484293683617127,11170,3.095440662438542,serve,serves_watch-right
1850,1761597274738408192,17.96940803527832,-1.4782272577285769,2.561725616455078,-1.0499122142791748,0.8641776442527771,-0.1749107390642166,-0.4718084633350372,-0.0687674880027771,0.0830223113298416,0.0974951386451721,0.7964887556190264,-0.0924154663468332,0.5055246264867375,0.3186061452022221,0.1758151154882424,1.0710583089205612,0.6565382522326575,11180,3.1384565660825223,serve,serves_watch-right
1860,1761597274748454144,17.979454040527344,-1.5562783479690552,2.6175215244293213,-0.9852930307388306,0.8778765201568604,-0.1590041816234588,-0.4517196118831634,-0.0420305728912353,0.0670394748449325,0.0991348028182983,0.7905933586716758,-0.1054197464171758,0.5128614554660322,0.3175248233958598,0.1596819220870556,1.0955691485667132,0.6662731490201789,11190,3.200659866907229,serve,serves_watch-right
1870,1761597274758501120,17.989500999450684,-1.6327177286148071,2.675040483474731,-0.9203127026557922,0.8910506367683411,-0.1434593796730041,-0.4306371510028839,-0.013792335987091,0.052288144826889,0.104846715927124,0.7842724581908984,-0.1185452122542072,0.5202196264039776,0.3165998109764525,0.1439560745107547,1.1206046892805968,0.6769514664752292,11200,3.266279877816876,serve,serves_watch-right
1880,1761597274768546048,17.99954605102539,-1.6313542127609253,2.7027502059936523,-0.8617825508117676,0.903593361377716,-0.1285660117864608,-0.4086436927318573,0.0071731209754943,0.0662338584661483,0.1199017167091369,0.7774687895579268,-0.1317515293294099,0.5275601247332745,0.3160127141212771,0.1289228529945315,1.146078762130542,0.688875111392235,11210,3.272437074777021,serve,serves_watch-right
1890,1761597274778592000,18.009592056274414,-1.6546961069107056,2.7575979232788086,-0.7886683940887451,0.9154868125915528,-0.1144937723875045,-0.385713666677475,0.0236001014709472,0.0672983303666114,0.1448689699172973,0.7702820981059736,-0.1447755872241855,0.534960929811031,0.3154715042601401,0.1147454060068364,1.1720460849813406,0.7012132723332456,11220,3.3112480046851767,serve,serves_watch-right
1900,1761597274788638208,18.01963806152344,-1.6164792776107788,2.7932016849517822,-0.7298689484596252,0.9267420768737792,-0.1013571470975875,-0.3617677390575409,0.0434575080871582,0.071739837527275,0.1664857566356659,0.7625962740110582,-0.1577249491667406,0.5424379910698097,0.3151678788808125,0.1015314971677906,1.198623414344559,0.7144179538923596,11230,3.308729301361491,serve,serves_watch-right
1910,1761597274798684160,18.02968406677246,-1.6273685693740845,2.874348402023315,-0.6754608154296875,0.9373365044593812,-0.089128702878952,-0.3368328213691711,0.0542406439781188,0.0874807611107826,0.1744182705879211,0.7545213399531105,-0.1704373597542063,0.5500315472907646,0.3148237195198209,0.0892471341770688,1.2258154156587575,0.7277908131045018,11240,3.371417285057069,serve,serves_watch-right
1920,1761597274808730112,18.039730072021484,-1.687627196311951,2.9711790084838867,-0.6087602972984314,0.947378933429718,-0.077646292746067,-0.3105545341968536,0.0517207384109497,0.0896549522876739,0.1765976846218109,0.7457866716709058,-0.1833558466390469,0.5577664138869995,0.3147688502245774,0.0777245257223269,1.2540304774661788,0.7424313819563343,11250,3.470818254209503,serve,serves_watch-right
1930,1761597274818776064,18.049776077270508,-1.7683117389678955,3.0197222232818604,-0.5158707499504089,0.9567310214042664,-0.0671205297112464,-0.2831267416477203,0.0283306241035461,0.0964631885290145,0.2111205458641052,0.7364879689795579,-0.1962559076436657,0.5656149350955977,0.3148791992198043,0.0671710266404016,1.283076374532799,0.7578619283756599,11260,3.5371982334339704,serve,serves_watch-right
1940,1761597274828822016,18.05982208251953,-1.835283637046814,3.025890350341797,-0.4253999590873718,0.9651949405670166,-0.0577350035309791,-0.2550794780254364,0.0175778865814209,0.0880694836378097,0.2270033359527588,0.7266231052843716,-0.2092262973944828,0.5733102324242505,0.3155292780406386,0.0577671268046355,1.3124256589383438,0.7748541201905035,11270,3.5644415503546867,serve,serves_watch-right
1950,1761597274838866944,18.06986689567566,-1.9244991540908811,3.05001163482666,-0.3406282961368561,0.972739279270172,-0.0495082028210163,-0.2265552431344986,0.0429620146751403,0.0843745321035385,0.2457507848739624,0.7163538892717398,-0.2220186872449643,0.580887323965796,0.3164091264271398,0.0495284482109928,1.341971233991383,0.7925286391796751,11280,3.6224709250459983,serve,serves_watch-right
1960,1761597274848912896,18.079912900924683,-2.0166845321655273,3.0857062339782715,-0.2432830929756164,0.9794124960899352,-0.0424236133694648,-0.1973604559898376,0.0721926093101501,0.0793040767312049,0.2951387763023376,0.7054516872148974,-0.2349853504351775,0.5883040523118102,0.3178333002490587,0.0424363488468851,1.3719502092531353,0.811863791170134,11290,3.694291018316754,serve,serves_watch-right
1970,1761597274858958848,18.089958906173703,-2.053854465484619,3.0820858478546143,-0.145674243569374,0.9851434230804444,-0.0367979444563388,-0.1677450537681579,0.0729162693023681,0.1000150963664054,0.3121237158775329,0.6940410781292645,-0.24779984685526,0.5955860205484358,0.3196553281947783,0.0368062536675419,1.4021391409979629,0.832150323591143,11300,3.7065876927676102,serve,serves_watch-right
1980,1761597274869005056,18.10000491142273,-2.1082050800323486,3.1095879077911377,-0.0633716434240341,0.9899280667304992,-0.0325551331043243,-0.1377769261598587,0.0928965806961059,0.1092152744531631,0.2863365411758423,0.6821150545295,-0.2605368886047671,0.6026873675751874,0.3218811457160784,0.0325608860771552,1.4325059578788708,0.8534668967476173,11310,3.757403569081358,serve,serves_watch-right
1990,1761597274879051008,18.110050916671753,-2.2330920696258545,3.204765558242798,0.037356212735176,0.9938079118728638,-0.0297339148819446,-0.1070587560534477,0.0995147228240966,0.0957129150629043,0.341265857219696,0.66954838945229,-0.2732296743178447,0.6097673057026712,0.3243982482486932,0.0297382979029432,1.4634843570678793,0.875639519192464,11320,3.9062280989920533,serve,serves_watch-right
2000,1761597274889096960,18.120096921920776,-2.2849955558776855,3.211557626724243,0.1395323872566223,0.9967319965362548,-0.0286076348274946,-0.0755435153841972,0.0528895258903503,0.1133549362421035,0.3867160081863403,0.6561525092584992,-0.2860203214349695,0.6167824717042083,0.3274683998629168,0.028611538431769,1.495149746489936,0.8992870167456594,11330,3.9439544073486648,serve,serves_watch-right
2010,1761597274899142912,18.1301429271698,-2.2676103115081787,3.1986517906188965,0.1753481775522232,0.998608946800232,-0.0288569182157516,-0.0441291965544223,0.0168634057044982,0.1709772944450378,0.3634803891181946,0.642467277631357,-0.298436768298067,0.6235951391109082,0.3306060356613631,0.0288609239161783,1.526634390902292,0.9228858694515002,11340,3.9248155097862343,serve,serves_watch-right
2020,1761597274909188096,18.140187978744507,-2.372947454452514,3.278661012649536,0.263512909412384,0.9994637370109558,-0.0303388554602861,-0.0123286470770835,0.0197319388389587,0.178867906332016,0.3422236442565918,0.6282145757248818,-0.3108614644337672,0.6302387057705378,0.3339324110135798,0.0303435112295697,1.558461689851525,0.9471765686004862,11350,4.055852155945496,serve,serves_watch-right
2030,1761597274919234048,18.15023398399353,-2.5332155227661133,3.3324692249298096,0.3770123124122619,0.999228298664093,-0.0337263457477092,0.0201289057731628,-0.0136327147483825,0.1718336194753646,0.3954900503158569,0.6132145331299749,-0.3230566565632616,0.636944934823124,0.3374957516277273,0.033732742428157,1.5909380551639165,0.971837577018658,11360,4.202935914762194,serve,serves_watch-right
2040,1761597274929280000,18.160279989242554,-2.6160829067230225,3.3746800422668457,0.4567707777023315,0.9978481531143188,-0.038870234042406,0.0528035350143909,-0.0512691736221313,0.1843780428171157,0.428901195526123,0.5974577475484819,-0.3352751143998141,0.6434223854452915,0.3415296650635468,0.0388800290764329,1.6236644215396103,0.997616994801565,11370,4.2942979293343555,serve,serves_watch-right
2050,1761597274939325952,18.170325994491577,-2.641733169555664,3.474668025970459,0.5472604632377625,0.995249330997467,-0.0457410365343093,0.0859445184469223,-0.0162607431411743,0.1899365931749344,0.4371267557144165,0.5809480991729586,-0.347365389754983,0.6498534801311786,0.3457268270909551,0.045757002986383,1.6569373888069834,1.0237522683207527,11380,4.399041491558732,serve,serves_watch-right
2060,1761597274949372160,18.1803719997406,-2.523167610168457,3.5270378589630127,0.650172770023346,0.9913172125816344,-0.0544319748878479,0.1196966096758842,0.0336613655090332,0.1912727952003479,0.4470148086547851,0.5637814141234194,-0.3589592803382884,0.6565032683764678,0.3497173104750323,0.0544588880747529,1.6909596258696522,1.049008316535283,11390,4.385099255255396,serve,serves_watch-right
2070,1761597274959418112,18.190418004989624,-2.3210082054138184,3.500718593597412,0.6357024908065796,0.986112654209137,-0.0642046481370925,0.1531654745340347,0.064760148525238,0.2221636325120926,0.4049857854843139,0.5465572694864949,-0.3697567470544999,0.6632214448963344,0.3531181990825874,0.0642488414967224,1.7248875329893505,1.0722360978478889,11400,4.2480851472133425,serve,serves_watch-right
2080,1761597274969464064,18.200464010238647,-2.263993501663208,3.5671796798706055,0.6445351243019104,0.9796523451805116,-0.0743498504161834,0.1864224821329116,0.0894546508789062,0.2502989470958709,0.3214510679244995,0.5293169584327068,-0.3800883769482366,0.6698836196667743,0.3558262068766828,0.0744185183374862,1.7588425224102202,1.093801185468599,11410,4.273858089655513,serve,serves_watch-right
2090,1761597274979508992,18.21050906181335,-2.39339542388916,3.748213768005371,0.6742045879364014,0.9716542959213256,-0.0855702236294746,0.2203755676746368,0.0857796072959899,0.212706446647644,0.2603525519371032,0.5112812443232307,-0.3904788733784655,0.6765456643191876,0.3583344781967086,0.085675000234353,1.7938276570978609,1.1153550334712734,11420,4.497999547816017,serve,serves_watch-right
2100,1761597274989555200,18.220555067062374,-2.618009090423584,3.9820926189422607,0.6846878528594971,0.9617863297462464,-0.0981284007430076,0.2556124627590179,0.0512293577194213,0.1432944238185882,0.2509336173534393,0.4918849996074246,-0.4014480624992678,0.6831146903279492,0.3608917850567788,0.0982865689003403,1.8305599330482345,1.1382142903667063,11430,4.814543662615212,serve,serves_watch-right
2110,1761597274999601152,18.2306010723114,-2.9226362705230713,4.219236850738525,0.7036194205284119,0.9497576951980592,-0.1124259382486343,0.2920971512794494,0.0058391690254211,0.0851127132773399,0.2425249814987182,0.4708056946227089,-0.4132158304984117,0.6894209533953457,0.3637216645062873,0.1126641348623431,1.869164445176539,1.1631694296512023,11440,5.180621841183903,serve,serves_watch-right
2120,1761597275009647104,18.240647077560425,-3.137505531311035,4.451416969299316,0.6959311366081238,0.935366988182068,-0.1285439580678939,0.3294920921325683,-0.0273622870445251,0.0926858186721801,0.2180848121643066,0.4477671215637584,-0.4262598054235692,0.6950169920447761,0.367094773860638,0.1289006176182077,1.9094828025140576,1.1916162443360805,11450,5.49029818320225,serve,serves_watch-right
2130,1761597275019693056,18.25069308280945,-3.259239435195923,4.642401218414307,0.6800159215927124,0.918455183506012,-0.146180123090744,0.3675203621387481,-0.025739848613739,0.1420450061559677,0.2137326896190643,0.4235487746299016,-0.4392983767302648,0.7005548688868769,0.3699272685891267,0.1467058021416951,1.9514324993936976,1.2195831614611503,11460,5.712876020210001,serve,serves_watch-right
2140,1761597275029739264,18.26073908805847,-3.2867627143859863,4.811357498168945,0.6775570511817932,0.8990214467048645,-0.1651021987199783,0.4055881202220917,-0.0177043080329895,0.2015707045793533,0.1964627504348755,0.398239996759017,-0.4524803193102804,0.7057305609665894,0.3723047803320272,0.1658616336454091,1.994601194649563,1.247534787486152,11470,5.866093561602187,serve,serves_watch-right
2150,1761597275039785216,18.270785093307495,-3.245316505432129,5.026947021484375,0.6503297090530396,0.8768594861030579,-0.1849912106990814,0.4437292218208313,0.0040913820266723,0.256493866443634,0.1404382884502411,0.3719540915414634,-0.4656565692659324,0.7106536245850363,0.3738790041052737,0.186062914346953,2.039267212648815,1.2746952302696517,11480,6.018737766983858,serve,serves_watch-right
2160,1761597275049829888,18.280829906463623,-3.2400035858154297,5.289359092712402,0.6251428723335266,0.8516055941581726,-0.2055546343326568,0.4821982979774475,0.0393702983856201,0.2549473643302917,0.1259865462779998,0.3446003483343134,-0.4789086983437296,0.7153639711883656,0.3743680629143407,0.2070304157861646,2.086009115450816,1.300844602372743,11490,6.23423984609075,serve,serves_watch-right
2170,1761597275059875840,18.290875911712646,-3.2140989303588867,5.549929141998291,0.6226423382759094,0.8228892087936401,-0.2270729690790176,0.5208563208580017,0.0599081516265869,0.2460854053497314,0.1599145531654358,0.3159853022964468,-0.4922173302622786,0.7198265402331772,0.3737982816770157,0.2290710766882944,2.135099523515278,1.326035865196317,11500,6.44358820043225,serve,serves_watch-right
2180,1761597275069922048,18.30092191696167,-3.147127151489258,5.749162673950195,0.5847783088684082,0.7907336950302124,-0.2492394000291824,0.559124231338501,0.0724102258682251,0.2892479300498962,0.1899144053459167,0.2863664724805106,-0.5054264186426937,0.7239518198745926,0.3720646530758265,0.2518947947447142,2.1862685028025868,1.3498636790132044,11510,6.58021629049578,serve,serves_watch-right
2190,1761597275079968000,18.310967922210693,-3.1494741439819336,5.946399211883545,0.5484696626663208,0.7552834153175354,-0.2718671858310699,0.5963519215583801,0.0641595125198364,0.35257089138031,0.1572034358978271,0.2559047318441786,-0.5185392077574729,0.7275252970972066,0.3692383360955789,0.2753327682992066,2.23914735236979,1.372520190937229,11520,6.751271727723991,serve,serves_watch-right
2200,1761597275090013952,18.321013927459717,-3.2272117137908936,6.1432271003723145,0.5764442682266235,0.7163311243057251,-0.2956401407718658,0.632034182548523,0.0440297722816467,0.3934642076492309,0.1273806691169738,0.2243228614578356,-0.5314912986917326,0.7304341822955452,0.3655986150219897,0.3001255563549498,2.2937578661667968,1.3943250312197806,11530,6.963219273206131,serve,serves_watch-right
2210,1761597275100059904,18.33105993270874,-3.308676481246948,6.316325664520264,0.6264895796775818,0.6738653182983398,-0.3211615979671478,0.6654029488563538,0.0222560763359069,0.4093725979328155,0.1139093041419982,0.1915016066008056,-0.5440770645638747,0.7325855769788017,0.3614218542062215,0.3269558232009076,2.3498759348050693,1.4152543968120492,11540,7.157918632624893,serve,serves_watch-right
2220,1761597275110106112,18.341105937957764,-3.390742301940918,6.524414539337158,0.6356236934661865,0.627777636051178,-0.3481665551662445,0.6961859464645386,0.0209343433380126,0.3924170732498169,0.0967216491699218,0.1574604155258915,-0.556257341509388,0.7339419240176109,0.3565292782268761,0.3556145653423264,2.4078179016653065,1.4349781724719597,11550,7.380320854744819,serve,serves_watch-right
2230,1761597275120151040,18.35115098953247,-3.5389344692230225,6.778194904327393,0.6965186595916748,0.5778632760047913,-0.3767912685871124,0.7239490151405334,0.0492270588874816,0.3452514111995697,0.1152538061141967,0.1220021079388382,-0.5680518916848548,0.7343647242317531,0.3509144045034628,0.3863298026980346,2.4679441786172216,1.4535544994342298,11560,7.67809361636494,serve,serves_watch-right
2240,1761597275130196992,18.361196994781498,-3.73477554321289,6.969810485839844,0.7297794222831726,0.5241421461105347,-0.4076506495475769,0.7477271556854248,0.066601812839508,0.3573424518108368,0.1037742495536804,0.0848874930381045,-0.5793443002434693,0.7336373520909103,0.3448630528687413,0.4198797633686419,2.530208941110263,1.4711291155198358,11570,7.940993928463372,serve,serves_watch-right
2250,1761597275140242944,18.37124300003052,-3.91670823097229,7.168752670288086,0.7497477531433105,0.4671167731285095,-0.4404261708259582,0.7666988372802734,0.0811010897159576,0.4077723026275635,0.1838933229446411,0.0463459665238471,-0.5900187050191282,0.731592329371244,0.3383825439993433,0.4560733098080876,2.5943941849446115,1.4874393192412247,11580,8.20327616916998,serve,serves_watch-right
2260,1761597275150289152,18.38128900527954,-4.126530170440674,7.355975151062012,0.7549353241920471,0.407148152589798,-0.4750137627124786,0.7801234126091003,0.0863211750984191,0.4276046454906463,0.2741826772689819,0.0064125482967797,-0.6000026923326801,0.7280511437008775,0.3315075246609523,0.4949796825630706,2.6605771802120226,1.5023331551225187,11590,8.468090045241127,serve,serves_watch-right
2270,1761597275160335104,18.391335010528564,-4.186138153076172,7.537010669708252,0.7854859232902527,0.344563752412796,-0.5106645822525024,0.7877164483070374,0.0950724184513092,0.4512774348258972,0.3723022937774658,-0.0346599365818529,-0.6091824954813783,0.7230179127188744,0.3239450169400973,0.5359575470877207,2.729248469705545,1.5150408270395122,11600,8.65720916968183,serve,serves_watch-right
2280,1761597275170381056,18.401381015777588,-4.221400737762451,7.548781871795654,0.8390524983406067,0.2803948223590851,-0.5465514063835144,0.789088249206543,0.0988471210002899,0.4669615626335144,0.4483232498168945,-0.0762311124286996,-0.6172021770262457,0.7166628170117236,0.3156654588530657,0.5782405929329769,2.8001683215117925,1.524407111928648,11610,8.689553557675083,serve,serves_watch-right
2290,1761597275180427008,18.41142702102661,-4.484229564666748,7.463005542755127,0.898489236831665,0.2161288112401962,-0.582828938961029,0.7833254337310791,0.1175503879785537,0.422398030757904,0.5003049373626709,-0.117923651675946,-0.6237234606232442,0.7089652850791113,0.3072967319018565,0.6222057112051506,2.8723788601994076,1.5300814919254773,11620,8.752830937961011,serve,serves_watch-right
2300,1761597275190472192,18.42147207260132,-4.9541473388671875,7.454215049743652,0.8551590442657471,0.1524997800588607,-0.6212148070335388,0.7686585783958435,0.1893123537302017,0.3476094603538513,0.5106077194213867,-0.1605079326160036,-0.6286657087494328,0.6993630738964874,0.2998464955289013,0.670291953512328,2.945738634010694,1.5328322812029682,11630,8.991117553119807,serve,serves_watch-right
2310,1761597275200518144,18.431518077850345,-5.3534674644470215,7.45116138458252,0.8454610705375671,0.0902667641639709,-0.6614360809326172,0.7445498704910278,0.1819042712450027,0.3279857039451599,0.6263913512229919,-0.204078053322164,-0.6320912611571685,0.6875576854421427,0.2933893067805329,0.7227318822674317,3.020944766043953,1.532431394854903,11640,9.213806178435764,serve,serves_watch-right
2320,1761597275210564096,18.441564083099365,-5.872659206390381,7.463201522827148,0.948638081550598,0.0292937830090522,-0.7028026580810547,0.710781455039978,0.0744965076446533,0.2488079071044922,0.8156009912490845,-0.2487269923185208,-0.6335431964154998,0.6738054247847227,0.2876528224866061,0.7793295820465265,3.100402475617874,1.526139343551095,11650,9.543972827627872,serve,serves_watch-right
2330,1761597275220610048,18.45161008834839,-6.228682518005371,7.440152168273926,1.060233473777771,-0.0300737544894218,-0.7445438504219055,0.6668959856033325,-0.0155957993119955,0.1671817302703857,1.0458574295043943,-0.2944451721927774,-0.6326218139157933,0.6582078959128235,0.2825847234033708,0.8398513153738899,-3.096528065397294,1.5110354726055193,11660,9.760965383408335,serve,serves_watch-right
2340,1761597275230656256,18.461656093597412,-5.90785026550293,7.761775016784668,1.0562392473220823,-0.0867677554488182,-0.7839397192001343,0.6147440075874329,-0.0773100033402443,0.0574076175689697,1.173982858657837,-0.3402277643661293,-0.6298686892195337,0.6408099745483113,0.2772601186636194,0.900986475067744,-3.001374352332509,1.4856720242138997,11670,9.811395798680694,serve,serves_watch-right
2350,1761597275240702208,18.471702098846436,-5.40793514251709,7.741779804229736,0.869785726070404,-0.1407796442508697,-0.8157383799552917,0.5610278248786926,-0.097776249051094,-0.2128414511680603,1.2267835140228271,-0.3838775092504176,-0.6272283674824896,0.6221723957928194,0.2685595473650257,0.9540046285301031,-2.895737323723641,1.4513594366746176,11680,9.483535430003231,serve,serves_watch-right
2360,1761597275250746880,18.481746912002563,-4.919443607330322,7.576499938964844,0.5230189561843872,-0.1876759231090545,-0.8421837091445923,0.5054745078086853,-0.2010112553834915,-0.2973427772521972,1.2100253105163574,-0.4245583454668317,-0.6247861203587818,0.6019797040302909,0.2588686623126437,1.0013204338882145,-2.7860815282007563,1.4120065512736215,11690,9.048636668546575,serve,serves_watch-right
2370,1761597275260793088,18.491792917251587,-4.776606559753418,7.630681991577148,-0.1215825751423835,-0.2260472178459167,-0.8648369312286377,0.4482855796813965,-0.2576106190681457,-0.1838234663009643,1.4478020668029783,-0.462693695442834,-0.6234617779727927,0.5791702665789413,0.2485394038608701,1.0448254815069868,-2.674552206782467,1.3722093722621274,11700,9.003224989182344,serve,serves_watch-right
2380,1761597275270839040,18.50183892250061,-4.648216724395752,7.832339763641357,-0.8891817331314087,-0.2539364993572235,-0.8859882950782776,0.38799649477005,-0.2382662892341613,-0.4309521317481994,1.3892099857330322,-0.4990452216408824,-0.6234362115141889,0.5525626947705212,0.2386539701095303,1.088620961361695,-2.5620734948706065,1.3340839973502554,11710,9.151071469757216,serve,serves_watch-right
2390,1761597275280884992,18.51188492774963,-4.43869686126709,8.114343643188477,-1.416458249092102,-0.2719968855381012,-0.9053266048431396,0.3261923491954803,-0.4438997209072113,-0.6040270328521729,1.3263649940490725,-0.5335034195825131,-0.6245171990554463,0.5225652485075879,0.2286436599990153,1.132148040204927,-2.446546980451377,1.2956242533633953,11720,9.356866813062833,serve,serves_watch-right
2400,1761597275290930944,18.521930932998657,-4.513279438018799,8.537481307983398,-1.9490691423416135,-0.2812059223651886,-0.9231907725334167,0.2619961500167846,-0.6835615634918213,-0.890178918838501,1.3684817552566528,-0.5668995830991391,-0.6259958363013369,0.4890064324149256,0.2182355971920293,1.176301337366395,-2.3208452577251566,1.250511978695817,11730,9.851758669975503,serve,serves_watch-right
2410,1761597275300976896,18.53197693824768,-4.713950157165527,8.964593887329102,-2.7015373706817627,-0.2796720564365387,-0.940277636051178,0.194065660238266,-0.8654389977455139,-1.1294854879379272,1.476970076560974,-0.5997076386406344,-0.627450225386856,0.4509313069869207,0.2081295415700421,1.223444992704252,-2.1774195503874196,1.1917067480543386,11740,10.482536611630284,serve,serves_watch-right
2420,1761597275311023104,18.542022943496704,-4.763143539428711,9.406251907348633,-3.7139275074005127,-0.2638731598854065,-0.9565758109092712,0.1238297298550605,-1.0737274885177612,-1.185025691986084,1.4532424211502075,-0.631260730230913,-0.6292633210717079,0.4073604528448235,0.1989851848726374,1.2750189443276556,-2.0095652605234813,1.112857200388139,11750,11.178477930913825,serve,serves_watch-right
2430,1761597275321068032,18.55206799507141,-5.34339714050293,9.886112213134766,-4.536889553070068,-0.2311141788959503,-0.9715891480445862,0.0509957820177078,-1.322047472000122,-1.202223539352417,1.553420066833496,-0.6615462523977366,-0.6305352672614873,0.3576634843679253,0.1919858464379043,1.3318552527589411,-1.787968348715924,0.983552419643124,11760,12.119012934582733,serve,serves_watch-right
2440,1761597275331113984,18.562114000320435,-5.722139358520508,10.432559967041016,-5.237440586090088,-0.1852408796548843,-0.982366383075714,-0.025337966158986,-1.5897988080978394,-1.1560765504837036,1.7571494579315186,-0.6915882802865752,-0.6291084257001743,0.3025782642033102,0.185403880873628,1.3827236191438423,-1.434856065274989,0.7269963847946772,11770,13.00046038404256,serve,serves_watch-right
2450,1761597275341159936,18.572160005569454,-5.02191162109375,10.754777908325195,-6.44057559967041,-0.1206469535827636,-0.9881495833396912,-0.0948934704065322,-1.721485614776611,-1.159067153930664,1.913527488708496,-0.717681776881577,-0.6278850982921667,0.2414820264282119,0.1799433896231202,1.4166930828334334,-0.9043177133304569,0.2972810115749846,11780,13.504290364271126,serve,serves_watch-right
2460,1761597275351206144,18.58220601081848,-4.393148899078369,10.746967315673828,-7.5196943283081055,-0.0381348095834255,-0.9878585934638976,-0.1506028771400451,-1.999722242355347,-1.2200119495391846,1.8563218116760256,-0.7376665936168282,-0.6274795247647282,0.1759772954894265,0.1764920803142364,1.4148086106125095,-0.2480016493199987,-0.2573454162413392,11790,13.83267387473673,serve,serves_watch-right
2470,1761597275361252096,18.592252016067505,-3.3905715942382812,10.685077667236328,-8.753138542175293,0.0607350468635559,-0.9802724719047546,-0.1880878210067749,-2.3285725116729736,-1.0297677516937256,1.896339774131775,-0.7504028187910868,-0.6281373764287767,0.1067685677690539,0.1758961696772151,1.3718353961482914,0.3123385337374484,-0.7168247305874792,11800,14.222668344197675,serve,serves_watch-right
2480,1761597275371298048,18.60229802131653,-1.955233097076416,10.309528350830078,-10.168009757995604,0.1737748086452484,-0.9637675881385804,-0.202372059226036,-2.779747009277344,-0.8348621726036072,2.0415902137756348,-0.754333487217296,-0.6305609932577129,0.0347390571262956,0.1793517836135805,1.3007838547628083,0.7095173088918876,-1.016269132201041,11810,14.61156164546302,serve,serves_watch-right
2490,1761597275381344000,18.61234402656555,-0.2075045257806778,9.548250198364258,-11.832449913024902,0.2985094785690307,-0.9354805946350098,-0.1891248524188995,-3.2171497344970703,-0.7053274512290955,2.082832098007202,-0.7475020601494842,-0.6355571011088677,-0.0387910390166006,0.1892172384485222,1.2096166937576889,1.0060623395387145,-1.222737426987946,11820,15.205887377033461,serve,serves_watch-right
2500,1761597275391389184,18.62238907814026,1.292994260787964,8.30185317993164,-13.630403518676758,0.4307463467121124,-0.8897026181221008,-0.1512843817472458,-3.59999680519104,-0.4631264209747314,2.0615322589874268,-0.7296515550228285,-0.6416785204506231,-0.112278610188273,0.2079684818081719,1.0966934143084448,1.233039917014439,-1.372371829794743,11830,16.011886224349944,serve,serves_watch-right
2510,1761597275401435136,18.63243508338928,3.408679246902466,6.861808776855469,-15.455071449279783,0.5653939843177795,-0.8194594383239746,-0.0938926562666893,-3.9819741249084473,-0.1152328848838806,2.1094412803649902,-0.700420655986738,-0.6474026660127757,-0.1841832275218392,0.2373966838606745,0.960467196049288,1.4062322435086,-1.485153318563628,11840,17.250007171034376,serve,serves_watch-right
2520,1761597275411481088,18.642481088638306,5.955047607421875,4.784974575042725,-17.315170288085938,0.6956185698509216,-0.718117892742157,-0.0205291118472814,-4.382477760314941,0.2485134601593017,2.26601243019104,-0.657476546333746,-0.6530022889477681,-0.2516415197289172,0.2792653055474568,0.8010940416297208,1.5412928653054832,-1.5834449318438304,11850,18.925477425837382,serve,serves_watch-right
2530,1761597275421527040,18.65252709388733,7.555950164794922,1.894348382949829,-19.040319442749023,0.8142856955528259,-0.5783021450042725,0.0500560365617275,-4.761703968048096,0.822152853012085,2.3879170417785645,-0.6019883876422795,-0.654091593021691,-0.3117566470105481,0.3355324499684196,0.6166459933632573,1.6321914009691296,-1.6700440285656952,11860,20.572182751734818,serve,serves_watch-right
2540,1761597275431573248,18.662573099136353,8.661187171936035,-1.5670596361160278,-19.67694854736328,0.9103963375091552,-0.4036837220191955,0.0906537026166915,-4.875148773193359,1.3474092483520508,2.657973051071167,-0.539668817146452,-0.6443062267520574,-0.3608272948892505,0.4042657401899563,0.4155396690943218,1.670045240810657,-1.7433896420852266,11870,21.555837800142108,serve,serves_watch-right
2550,1761597275441619200,18.672619104385376,11.46528434753418,-5.0106940269470215,-19.818296432495117,0.9742892980575562,-0.2064584046602249,0.0901974439620971,-4.8717193603515625,1.406256914138794,2.2455265522003174,-0.4697374025806885,-0.624892971801407,-0.3932015960658649,0.4839919207146689,0.2079539977941638,1.6631108760774762,-1.8286151204085948,11880,23.437676362808315,serve,serves_watch-right
2560,1761597275451663872,18.682663917541504,12.708115577697754,-8.898749351501465,-18.57642364501953,0.9993883371353148,-0.0069471220485866,0.0342753380537033,-5.481199741363525,2.1307873725891113,1.5286824703216553,-0.3954132875588493,-0.5941740857523509,-0.4050861950236581,0.571411147710841,0.0069471779007807,1.605079206907491,-1.9381165803028475,11890,24.20263326574637,serve,serves_watch-right
2570,1761597275461710080,18.692709922790527,11.709887504577637,-12.801301956176758,-15.414602279663086,0.9832779765129088,0.1611848175525665,-0.0847593545913696,-6.130067348480225,3.4180541038513184,1.0836454629898071,-0.3293090706887979,-0.5481791702758644,-0.3963835525666928,0.6587376785401687,-0.1618910493922988,1.4848080796850107,-2.0658552018255705,11900,23.207859888048116,serve,serves_watch-right
2580,1761597275471756032,18.70275592803955,10.445768356323242,-13.757942199707031,-11.835598945617676,0.9312317371368408,0.2748539447784424,-0.2392962574958801,-6.068011283874512,3.4634883403778076,0.3094561696052551,-0.278992183137414,-0.491228399594071,-0.3728894336844547,0.7360784046543216,-0.2784378005446452,1.3192708679117622,-2.200512097891756,11910,20.939829333735023,serve,serves_watch-right
2590,1761597275481801984,18.712801933288578,10.787755012512209,-12.92734432220459,-7.938291549682617,0.8583731651306152,0.3306870460510254,-0.3922263085842132,-6.560399532318115,3.325150966644287,-0.3845223188400268,-0.2397060623678072,-0.435782945794827,-0.3376093496136332,0.7991583605552642,-0.3370314799087598,1.1421848904720284,-2.341018938154136,11920,18.614735081718997,serve,serves_watch-right
2600,1761597275491847936,18.7228479385376,9.23953628540039,-11.479697227478027,-3.863368272781372,0.7816712260246277,0.3320217430591583,-0.527969479560852,-7.416314601898193,3.7187442779541016,-1.111556887626648,-0.2143345941255809,-0.386922232411767,-0.293779610611241,0.8473756623330932,-0.3384461014027742,0.9767466993149436,-2.4650498228149447,11930,15.234109544536263,serve,serves_watch-right
2610,1761597275501893888,18.73289394378662,6.429595470428467,-9.525056838989258,-1.6029260158538818,0.7137870192527771,0.3058364987373352,-0.6300572752952576,-6.720821380615234,4.1558637619018555,-2.1643762588500977,-0.2041788101381651,-0.3467712854072129,-0.2544033204196219,0.8793972941067296,-0.3108168899431874,0.8476238613033981,-2.544185118520265,11940,11.603265812331953,serve,serves_watch-right
2620,1761597275511940096,18.742939949035645,5.381136417388916,-10.142786979675291,0.007902093231678,0.6422811150550842,0.2732238471508026,-0.7161170840263367,-5.059105396270752,4.1893463134765625,-3.768181562423706,-0.2070137756450079,-0.3049592479469828,-0.2212268272144908,0.902886397078634,-0.276742817569692,0.7310964178110224,-2.5843198881690914,11950,11.481847381876197,serve,serves_watch-right
2630,1761597275521985024,18.75298500061035,6.065601825714111,-10.446905136108398,-1.5491187572479248,0.5628551840782166,0.2362569123506546,-0.7920711636543274,-3.2555127143859863,3.5947978496551514,-4.266766548156738,-0.2067856438930312,-0.2628640579962636,-0.1867268004528292,0.9237290357494656,-0.2385118917181207,0.6178125656087958,-2.6246951189014593,11960,12.179044353109637,serve,serves_watch-right
2640,1761597275532030976,18.763031005859375,14.134803771972656,-13.045367240905762,-0.3738561868667602,0.4618430137634277,0.1617754250764846,-0.8720836043357849,-0.3828787803649902,2.5974104404449463,0.3875102400779724,-0.1976909216906284,-0.2165611670640078,-0.130611890457046,0.9470798600756148,-0.1624895159462851,0.4870350896000958,-2.6895738841172947,11970,19.23834848864965,serve,serves_watch-right
2650,1761597275542077184,18.7730770111084,19.770294189453125,-12.525527000427246,2.561025381088257,0.3434086441993713,-0.0038667621556669,-0.9391781091690063,1.332815170288086,3.656942844390869,1.5523678064346311,-0.1930869744704694,-0.1713758788878583,-0.0322683869963143,0.9655601584748486,0.0038667718155096,0.3505466034457994,-2.747536186191838,11980,23.543835923199392,serve,serves_watch-right
2660,1761597275552123136,18.783123016357425,19.912797927856445,-10.25696849822998,2.4331674575805664,0.2324154824018478,-0.1995782107114792,-0.9519199132919312,1.4885470867156982,2.6828088760375977,1.7234196662902832,-0.18845443207982,-0.1347390773693157,0.0767164231097592,0.9697653630819985,0.200927454555283,0.2394694378174628,-2.7819713951206,11990,22.53098373276132,serve,serves_watch-right
2670,1761597275562169088,18.793169021606445,21.12469482421875,-8.24325942993164,5.177881717681885,0.1343894004821777,-0.3992637991905212,-0.9069332480430604,-1.5161185264587402,2.546450138092041,2.7828640937805176,-0.188630606504273,-0.107013138979126,0.1873007414001167,0.9580632045505808,0.4107137306699975,0.1471095545470661,-2.783485681389005,12000,23.259718754272065,serve,serves_watch-right
2680,1761597275572215040,18.80321502685547,20.868453979492188,-7.063320159912109,7.6059794425964355,0.0354179739952087,-0.5883323550224304,-0.8078431487083435,-2.4885125160217285,2.61210560798645,2.6798830032348633,-0.1996678130138653,-0.0831895451775351,0.2985932224191493,0.9295452062338844,0.6289949421508356,0.0438145775308701,-2.7326742005931917,12010,23.307376224208586,serve,serves_watch-right
2690,1761597275582260224,18.813260078430176,16.770244598388672,-4.7910261154174805,9.404356956481934,-0.066785454750061,-0.7301226258277893,-0.6800445914268494,-2.684175729751587,2.747990608215332,1.9003052711486816,-0.2226012432156707,-0.0613961734795443,0.3952318642632245,0.8890843395508392,0.8185014273697322,-0.0978935565615681,-2.6084484125393828,12020,19.81506913672841,serve,serves_watch-right
2700,1761597275592306176,18.8233060836792,11.707468032836914,-1.4106062650680542,9.842307090759276,-0.1623522043228149,-0.8078085780143738,-0.5666453838348389,-3.4794936180114746,1.705315351486206,0.6793621182441711,-0.2561135031497616,-0.0442651320762785,0.4633766412423686,0.8471885417306538,0.9404247805453884,-0.2790394678749388,-2.4119402837891126,12030,15.35987065843192,serve,serves_watch-right
2710,1761597275602352128,18.833352088928223,8.431884765625,1.1004300117492676,10.025938987731934,-0.2444948554039001,-0.8394784331321716,-0.4852816164493561,-3.826870441436768,-0.4485464692115783,-0.719384491443634,-0.2969921047450459,-0.0346929789644961,0.5061181604642631,0.8089725208208794,0.9963227067737532,-0.4666993998080543,-2.180769531243571,12040,13.146371343350252,serve,serves_watch-right
2720,1761597275612398080,18.84339809417725,7.60598611831665,1.0941848754882812,9.360074043273926,-0.3217949569225311,-0.8479912281036377,-0.4211398959159851,-3.949094295501709,-0.5380865931510925,-0.9824397563934326,-0.3374616597433487,-0.0264518764183561,0.5373363449954512,0.7724568290922127,1.0121836958235506,-0.6524671523324623,-1.9471153455464112,12050,12.110295267636673,serve,serves_watch-right
2730,1761597275622444032,18.85344409942627,5.170291900634766,2.802952289581299,10.037230491638184,-0.3961208164691925,-0.8393580913543701,-0.3722448647022247,-3.619900941848755,0.5385768413543701,-0.9344567656517028,-0.3781937316517543,-0.018597013545091,0.5599390324309464,0.7369476841523208,0.996101255668209,-0.8164618492252796,-1.731305965265563,12060,11.633333822155617,serve,serves_watch-right
2740,1761597275632490240,18.863490104675293,2.2184770107269287,3.651959419250488,9.714442253112791,-0.4667580425739288,-0.8089770674705505,-0.3573417365550995,-3.179466962814331,-0.9346752762794496,-1.4377784729003906,-0.4237380752818342,-0.0096056794524113,0.56677761572012,0.7064820922846416,0.9424098518176012,-0.9173968472773586,-1.5681058505559062,12070,10.612673373662236,serve,serves_watch-right
2750,1761597275642536192,18.873536109924316,1.0135512351989746,3.6258275508880615,9.465466499328612,-0.5289727449417114,-0.7672179341316223,-0.3627183139324188,-3.141498565673828,-1.65799880027771,-1.1504957675933838,-0.4670069727451574,0.0012776818396706,0.5644813637018276,0.6806347807135092,0.8744922322086958,-0.9697300894737814,-1.455996688899612,12080,10.186705433311818,serve,serves_watch-right
2760,1761597275652580864,18.883580923080444,-0.0110994298011064,3.915935754776001,9.275609970092772,-0.585419774055481,-0.7158607840538025,-0.3805617094039917,-3.2840566635131836,-0.6072441339492798,-0.5381700396537781,-0.5094682845598975,0.0141244487374691,0.556344898851666,0.6562949628010644,0.7978561259506225,-0.9943744490181884,-1.3716214074010027,12090,10.068347250177629,serve,serves_watch-right
2770,1761597275662627072,18.893626928329468,-0.0574951916933059,3.7707080841064458,8.601700782775879,-0.6318585872650146,-0.6610323190689087,-0.4047110080718994,-2.952736139297486,-0.8597043752670288,-0.3448312282562256,-0.5489958148628992,0.0264803952207819,0.5449250219127406,0.633213344769862,0.7221937252568081,-1.0011222322823583,-1.3055840392803184,12100,9.392060557141907,serve,serves_watch-right
2780,1761597275672673024,18.90367293357849,-0.0897300913929939,3.7919247150421143,8.027497291564941,-0.6692559719085693,-0.6062764525413513,-0.4295640885829925,-2.868997812271118,-0.6943522095680237,-0.2485517263412475,-0.5851959618117697,0.0374802934788478,0.5327412038010693,0.6101866001390431,0.651369978319175,-1.000169539446262,-1.247648777168578,12110,8.87848282647047,serve,serves_watch-right
2790,1761597275682718976,18.913718938827515,-0.3739913403987884,4.048235893249512,7.176217079162598,-0.6960321664810181,-0.5530918836593628,-0.4578521847724914,-2.7877933979034424,-0.695870578289032,-0.620562732219696,-0.6183963157455631,0.0464322351137582,0.5185729999928876,0.5886528047860957,0.5860708613718348,-0.9889551204407924,-1.1990001395634986,12120,8.247798187234695,serve,serves_watch-right
2800,1761597275692764928,18.923764944076535,-0.8149943351745605,4.225089073181152,6.595312118530273,-0.7127629518508911,-0.5016586780548096,-0.4902117848396301,-2.723546981811523,-0.8245894908905029,-0.8989636301994324,-0.6488464654432609,0.053869904605258,0.5019881842025767,0.5693015177493015,0.5255151108664782,-0.9683306000056952,-1.159328222968842,12130,7.8748800234361465,serve,serves_watch-right
2810,1761597275702810880,18.93381094932556,-1.5152573585510254,4.476708889007568,6.060172080993652,-0.7208374738693237,-0.4501203894615173,-0.5270529985427856,-2.6168699264526367,-0.8420395851135254,-1.0912482738494873,-0.6770963495962569,0.0611402247553997,0.482426540284768,0.5523286912063444,0.4669001581367484,-0.9394573104611984,-1.128270375997391,12140,7.685220425649309,serve,serves_watch-right
2820,1761597275712857088,18.943856954574585,-2.2153918743133545,4.725760459899902,5.473057270050049,-0.7201160788536072,-0.397966057062149,-0.5683799982070923,-2.337440013885498,-0.9778274297714232,-1.3049567937850952,-0.7031853634426111,0.0687100473262489,0.4594441489069183,0.5382567805971715,0.4092987049328591,-0.9026204423319584,-1.1061207056646192,12150,7.562746125738631,serve,serves_watch-right
2830,1761597275722902016,18.953902006149292,-2.699965000152588,5.077268123626709,4.965959548950195,-0.7105111479759216,-0.3458179533481598,-0.6128490567207336,-2.104292869567871,-1.011130928993225,-1.2973072528839111,-0.7271823838212662,0.0762006797040537,0.4333231292426643,0.5269064834669567,0.3531103783675695,-0.8590632113780584,-1.0909911617170605,12160,7.5979745224009845,serve,serves_watch-right
2840,1761597275732947968,18.963948011398315,-2.7815308570861816,5.297804355621338,4.703554630279541,-0.6927378177642822,-0.2940648794174194,-0.658513605594635,-1.9072377681732176,-1.068560242652893,-1.2589058876037598,-0.7496998898324537,0.0829839488466742,0.4047923733189338,0.5169205509308217,0.2984769912362227,-0.8107205418406658,-1.078427710511439,12170,7.6109835802862635,serve,serves_watch-right
2850,1761597275742994176,18.97399401664734,-2.5806214809417725,5.296175956726074,4.5458455085754395,-0.6689918041229248,-0.2439755201339721,-0.7020867466926575,-1.7917473316192627,-1.1756106615066528,-1.1931310892105105,-0.7708384407403341,0.088704502233128,0.3756169968144917,0.5068050805041632,0.2464631532652717,-0.7612649620521273,-1.0641781041400111,12180,7.441357294226433,serve,serves_watch-right
2860,1761597275753040128,18.98404002189636,-2.1959879398345947,5.300096035003662,4.260848045349121,-0.6402259469032288,-0.1975647360086441,-0.7423468828201294,-1.755373477935791,-1.149053931236267,-1.147850751876831,-0.7904850406288589,0.0927299141825915,0.3467387065714238,0.4962929571218544,0.1988730676103905,-0.7116690779708831,-1.0471456737294536,12190,7.14620228357104,serve,serves_watch-right
2870,1761597275763085056,18.99408507347107,-1.9716559648513792,5.2504963874816895,3.886693239212036,-0.6070312857627869,-0.1560625433921814,-0.7792031764984131,-1.7325682640075684,-1.1465955972671509,-1.0779898166656494,-0.8084174689856128,0.0948572632756797,0.3184344777450361,0.4858630364814839,0.1567030900262973,-0.6618298128016543,-1.028384265986039,12200,6.823600508120976,serve,serves_watch-right
2880,1761597275773131008,19.004131078720093,-1.8891267776489256,5.190290451049805,3.457596778869629,-0.5700975060462952,-0.1187832206487655,-0.8129448890686035,-1.700517177581787,-1.1393954753875732,-0.9914679527282716,-0.8244056708112184,0.095751183638912,0.2904466616994273,0.4762644792112994,0.119064334857218,-0.6115808217373218,-1.010104150331045,12210,6.516355609812791,serve,serves_watch-right
2890,1761597275783177216,19.014177083969116,-1.9134992361068728,5.198983192443848,3.1317334175109863,-0.5299380421638489,-0.0845986381173133,-0.8438061475753784,-1.612396001815796,-1.0990408658981323,-0.8750201463699341,-0.8385563371531682,0.0959437957761658,0.2624723174702993,0.467682075024608,0.0846998777022099,-0.5607773213263187,-0.993101642689115,12220,6.363855730628268,serve,serves_watch-right
2900,1761597275793222144,19.024222135543823,-1.9062100648880005,5.2295379638671875,2.8775484561920166,-0.4869094789028168,-0.0526937618851661,-0.8718615174293518,-1.5006088018417358,-1.1465250253677368,-0.7504833936691284,-0.8511490854257128,0.0956601144018274,0.2343466882006821,0.459865257484399,0.0527181781728837,-0.5093236531230618,-0.9769855577633906,12230,6.265938815911111,serve,serves_watch-right
2910,1761597275803268096,19.034268140792847,-1.8287683725357056,5.126523971557617,2.807828903198242,-0.4418227672576904,-0.022853935137391,-0.8968111872673035,-1.416529893875122,-1.144077181816101,-0.6101773381233215,-0.862488224119536,0.0949477727338135,0.2063475650535731,0.4522384529085095,0.0228559252957581,-0.4577581608808511,-0.9605366355726676,12240,6.1245036485397915,serve,serves_watch-right
2920,1761597275813314304,19.04431414604187,-1.689556360244751,4.979413032531738,2.762246370315552,-0.3959163427352905,0.0050519276410341,-0.9182726740837096,-1.3874393701553345,-1.114747405052185,-0.5585644841194153,-0.8728363198823941,0.0939732906316786,0.1789767446322663,0.4441769091651923,-0.0050519493274128,-0.407071015652766,-0.942509895475664,12250,5.939626238519715,serve,serves_watch-right
2930,1761597275823360256,19.054360151290897,-1.4543288946151731,4.797686576843262,2.6947712898254395,-0.3498195111751556,0.0299394540488719,-0.9363385438919068,-1.3594547510147097,-1.0899674892425537,-0.590654194355011,-0.8822002808013204,0.0923660789975601,0.1526408230529367,0.43576582024804,-0.0299439293490573,-0.3575459167079193,-0.9230085072361082,12260,5.691630814432896,serve,serves_watch-right
2940,1761597275833406208,19.064406156539917,-1.2147226333618164,4.635916709899902,2.607697010040283,-0.3040821254253387,0.051410038024187,-0.9512576460838318,-1.3500316143035889,-1.0419801473617554,-0.5856686234474182,-0.8906625923918485,0.0900133215416798,0.1275491645831626,0.4270234057558289,-0.0514327123364342,-0.3093974690253641,-0.9021594326686668,12270,5.4559470775754075,serve,serves_watch-right
2950,1761597275843452160,19.07445216178894,-0.7397089004516602,4.206089019775391,1.5867278575897217,-0.2592694461345672,0.0665003061294555,-0.9635128974914552,-1.328361749649048,-0.9464899301528932,-0.5255923271179199,-0.8975189679062631,0.0858266262498536,0.1042945341369496,0.4197810831883373,-0.0665494167420443,-0.2628612967186447,-0.8837722342773243,12280,4.555881845892602,serve,serves_watch-right
2960,1761597275853498112,19.084498167037964,-0.3556837439537048,4.024724960327148,1.0689395666122437,-0.219563603401184,0.0755845680832862,-0.9726658463478088,-1.380411982536316,-0.8956224322319031,-0.4718379378318786,-0.9017169370767736,0.0808767278974885,0.0844159044496917,0.416220504149382,-0.0756567252109673,-0.2220128275627824,-0.8733320571846636,12290,4.179420262316588,serve,serves_watch-right
2970,1761597275863543296,19.09454321861267,-0.0992985963821411,4.153134822845459,1.3798116445541382,-0.1778810024261474,0.0802284851670265,-0.980776071548462,-1.3705503940582275,-1.514875054359436,-0.3145424723625183,-0.9057865948420252,0.0737079167410522,0.064645942945829,0.412236254117012,-0.0803147999262161,-0.1794173044456089,-0.8614255458700542,12300,4.377472928805185,serve,serves_watch-right
