t_rel_ms,time,seconds_elapsed,rotationRateX,rotationRateY,rotationRateZ,gravityX,gravityY,gravityZ,accelerationX,accelerationY,accelerationZ,quaternionW,quaternionX,quaternionY,quaternionZ,pitch,roll,yaw,timestamp,omega_mag,label,session_id
0,1761597282714814720,25.945814609527588,-0.0663984715938568,-0.0215358436107635,0.0306298658251762,-0.0002282412169734,0.7526928186416626,-0.6583718061447144,-0.0250860769301652,0.0122455358505249,0.0272682905197143,-0.012144322644267,0.005637313990831,-0.4132581830882676,0.9105154201205548,-0.8521426905609715,-0.000346675246831,-3.1150758691843023,19120,0.0762281986570309,serve,serves_watch-right
10,1761597282724860672,25.95586061477661,-0.061253510415554,-0.0118954656645655,0.0369447544217109,-0.00017240656598,0.7536377906799316,-0.657289981842041,-0.0158188045024871,0.0147643089294433,0.0263237953186035,-0.0123155060986826,0.0056950551615297,-0.4139113290159067,0.9102160787019464,-0.8535791529181235,-0.0002622990889496,-3.1146529621871206,19130,0.07251489171808619,serve,serves_watch-right
20,1761597282734906624,25.965906620025635,-0.0596892014145851,-0.0120802577584981,0.0408667027950286,3.4691227483563125e-05,0.7546069025993347,-0.6561772227287292,-0.0071300496347248,0.0182507634162902,0.0190312266349792,-0.0125098588878077,0.005680828128637,-0.4145830615616981,0.9099078279844176,-0.8550548046787385,5.286868551413097e-05,-3.1140733226022212,19140,0.0733404444379761,serve,serves_watch-right
30,1761597282744952576,25.975952625274655,-0.0459374375641346,-0.0163399837911129,0.0460121929645538,8.366736636844507e-08,0.7553871273994446,-0.6552788615226746,-0.000991917331703,0.0198661684989929,0.0081841349601745,-0.0126770745864391,0.0057851410317718,-0.4151230065794539,0.9096586331033512,-0.8562447064333107,1.2768208024052124e-07,-3.11372224638452,19150,0.06704002641452292,serve,serves_watch-right
40,1761597282754998784,25.98599863052368,-0.0324107781052589,-0.0036217235028743,0.0368516333401203,-0.0001898156187962,0.7559430003166199,-0.6546373963356018,0.0057440185919404,0.0147631168365478,-0.0020398497581481,-0.0127871022235512,0.005946290427982,-0.415506860457829,0.9094807209033854,-0.8570934611833515,-0.0002899553431056,-3.1136074088107515,19160,0.04920994105213161,serve,serves_watch-right
50,1761597282765043712,25.99604368209839,-0.0170789584517478,0.0045408648438751,0.0225842781364917,-0.0005203093751333,0.7563251852989197,-0.6541956663131714,0.0097518758848309,0.0111156105995178,-0.0045262575149536,-0.0127978338553991,0.0061374068782901,-0.4157697664671929,0.9093591449111212,-0.8576774011323589,-0.0007953419312095,-3.1138112256517876,19170,0.02867681806395691,serve,serves_watch-right
60,1761597282775089152,26.006089210510257,-0.0136995073407888,0.0129842506721615,0.021230325102806,-0.0009075925918295,0.7567026615142822,-0.6537585258483887,0.0053479014895856,0.0105397701263427,0.0028948783874511,-0.0127499439314871,0.0063329294358591,-0.4160295865682535,0.9092395935886904,-0.85825458264165,-0.0013882678534685,-3.1141844218479027,19180,0.02840763930474842,serve,serves_watch-right
70,1761597282785135360,26.016135215759277,-0.00684559578076,0.0104217566549777,0.0172046907246112,-0.0013155664782971,0.7570820450782776,-0.653318464756012,-0.0019955881871283,0.0071849226951599,0.0091382265090942,-0.0126742322158035,0.006527140227187,-0.4162909508050713,0.909119646441566,-0.8588350885813016,-0.0020136652043177,-3.1146341177358208,19190,0.021247978169667194,serve,serves_watch-right
80,1761597282795181312,26.0261812210083,-0.0042782085947692,0.0101289758458733,0.0130395088344812,-0.0017497022636234,0.7574848532676697,-0.6528503894805908,-0.0071919504553079,0.0025248527526855,0.0119202733039855,-0.0125965631245073,0.0067351353306738,-0.4165686420868125,0.908992025856382,-0.8594518674787062,-0.0026800902825907,-3.1151072303825584,19200,0.01705661194701794,serve,serves_watch-right
90,1761597282805226240,26.036226272583008,0.0103156473487615,0.0065419641323387,0.0041674538515508,-0.002031362382695,0.7578921318054199,-0.652376651763916,-0.0096873771399259,0.0058102011680603,0.0132775902748107,-0.012524704834767,0.0068619983715065,-0.4168507819681726,0.9088626698832344,-0.8600759576001855,-0.0031137773910907,-3.1154613114416225,19210,0.012906492418067033,serve,serves_watch-right
100,1761597282815272448,26.04627227783203,0.0067694820463657,0.0072262967005372,0.0111968675628304,-0.002069748705253,0.758213222026825,-0.6520034074783325,-0.0123955775052309,0.0098074078559875,0.0144912004470825,-0.0125161089442137,0.0068830275406222,-0.4170742514641967,0.9087601524007464,-0.8605682959831398,-0.0031744341660397,-3.115505887659368,19220,0.014947076449922438,serve,serves_watch-right
110,1761597282825318400,26.056318283081055,-0.0305073149502277,0.0104449931532144,0.035362921655178,-0.0018367117736488,0.7585561871528625,-0.6516050696372986,-0.0142918359488248,0.0076486468315124,0.0155425071716308,-0.012614270313899,0.0068040229964299,-0.4173142267862054,0.908649245962905,-0.8610944523148073,-0.00281874250142,-3.1151241570957797,19230,0.047857396245860884,serve,serves_watch-right
120,1761597282835364352,26.06636428833008,-0.0603308901190757,0.0166050512343645,0.0471087954938411,-0.0012283663963899,0.7589397430419922,-0.6511597037315369,-0.0112991081550717,0.0051441192626953,0.0074219703674316,-0.0128166127416993,0.0065669215183934,-0.4175847367882206,0.9085238843086586,-0.8616833136305573,-0.0018864264303911,-3.1142474584675965,19240,0.07832485328384854,serve,serves_watch-right
130,1761597282845410304,26.0764102935791,-0.0653847754001617,0.0177432857453823,0.0541826859116554,-0.0004663336148951,0.7593593001365662,-0.6506713032722473,-0.003592497203499,0.007272720336914,-0.0057770013809204,-0.0130667993210961,0.0062677574703956,-0.4178816265368613,0.908385844202794,-0.8623278845818996,-0.0007166959998601,-3.113155065220615,19250,0.08675111812405059,serve,serves_watch-right
140,1761597282855455488,26.08645534515381,-0.0645037963986396,0.0129205677658319,0.0583851560950279,0.0002027283917414,0.7598770260810852,-0.6500667929649353,5.666656943503767e-05,0.0136520266532897,-0.0155673027038574,-0.0133301024191314,0.0060270998233549,-0.4182466569361938,0.9082156821368476,-0.8631239279752609,0.0003118577667818,-3.1120966607244624,19260,0.08795741738744595,serve,serves_watch-right
150,1761597282865501440,26.096501350402832,-0.0551102943718433,0.0160801410675048,0.0571947172284126,0.0006375604425556,0.7603981494903564,-0.6494568586349487,0.0033907601609826,0.0202109813690185,-0.0208007097244262,-0.0135410136212598,0.0058914111516929,-0.4186130145732916,0.9080446389640064,-0.8639259590372648,0.0009816821783539,-3.111317754055587,19270,0.08103672723734687,serve,serves_watch-right
160,1761597282875547392,26.106547355651855,-0.068104088306427,0.0177741460502147,0.0555143542587757,0.0009357458911836,0.7609071731567383,-0.6488600969314575,0.0005443497211672,0.0158872604370117,-0.0208634138107299,-0.0137127154861037,0.0058128400181235,-0.418970355388768,0.907877787192426,-0.8647100800563563,0.0014421371265656,-3.11072115895805,19280,0.08964335246203602,serve,serves_watch-right
170,1761597282885593344,26.11659336090088,-0.0576850064098835,0.0061715515330433,0.0512841902673244,0.0011059507960453,0.7614789009094238,-0.6481887102127075,3.845698665827513e-05,0.0165209770202636,-0.0197495222091674,-0.013860106849971,0.0057944322348871,-0.4193710259674035,0.9076906324688236,-0.8655916934685896,0.0017062155010451,-3.110267465391923,19290,0.07743201007469999,serve,serves_watch-right
180,1761597282895639296,26.126639127731323,-0.0538297183811664,0.0094484714791178,0.052201472222805,0.0011513892095535,0.762029230594635,-0.6475416421890259,-0.0003121539484709,0.0158790946006774,-0.0163682699203491,-0.0139844759192598,0.0058339536376803,-0.4197560634110273,0.9075104615464252,-0.8664410675470872,0.0017780910876995,-3.1099532546272974,19300,0.07557715194763341,serve,serves_watch-right
190,1761597282905684224,26.13668417930603,-0.0553312078118324,0.0293811671435832,0.0523543357849121,0.0012339374516159,0.7625826001167297,-0.6468897461891174,0.0036336136981844,0.0005552172660827,-0.0154027342796325,-0.0140947799888699,0.0058466852042806,-0.420143969113658,0.9073291775530052,-0.867296070265854,0.0019074904432567,-3.1096431783282386,19310,0.08164417931558063,serve,serves_watch-right
200,1761597282915730176,26.146730184555057,-0.0150007270276546,0.0325888432562351,0.0472060926258564,0.0014676087303087,0.7628768086433411,-0.6465421915054321,0.0050021200440824,0.0046249628067016,-0.009951889514923,-0.0141701285495698,0.0057566703394307,-0.4203519573322095,0.9072322339588114,-0.8677510707771453,0.0022699311366322,-3.1093053392595063,19320,0.059291396484975806,serve,serves_watch-right
210,1761597282925776128,26.156776189804077,0.0215652715414762,0.0277932900935411,0.0646125152707099,0.0019389777444303,0.7627729773521423,-0.6466633677482605,0.0017231522360816,0.0080704689025878,-0.0143473148345947,-0.0143288194074833,0.0055691256771817,-0.4202824110941197,0.9072630414988356,-0.8675904766676188,0.0029984255289527,-3.108619419610208,19330,0.07356836983710495,serve,serves_watch-right
220,1761597282935822336,26.1668221950531,0.040294487029314,0.0201177932322025,0.0767205730080604,0.0025975741446018,0.7624594569206238,-0.6470308303833008,0.007534253410995,0.0069802403450012,-0.0348386168479919,-0.0145929225273413,0.0053244752378519,-0.4200669255766925,0.9073602105977654,-0.8671057164529117,0.0040145848952253,-3.107571298891014,19340,0.08896301260734335,serve,serves_watch-right
230,1761597282945867264,26.176867246627808,0.0333244614303112,0.0418710261583328,0.0743719339370727,0.0033874646760523,0.762155294418335,-0.6473853588104248,0.0171661265194416,0.01131272315979,-0.0439293384552001,-0.0148864201877359,0.0050211682610488,-0.4198596246818352,0.9074530418966482,-0.8666357864702715,0.005232484420181,-3.106365581360855,19350,0.09162361659917378,serve,serves_watch-right
240,1761597282955913216,26.18691325187683,0.0328595042228698,0.0659590139985084,0.0687636658549308,0.0042568482458591,0.761873722076416,-0.6477115750312805,0.0241550169885158,0.0083898901939392,-0.0415889024734497,-0.0150857908311939,0.0046307917409727,-0.4196698245342569,0.9075396426427514,-0.8662009878990332,0.0065720407178217,-3.1053114625509335,19360,0.10079077481216621,serve,serves_watch-right
250,1761597282965959424,26.196959257125854,0.036942396312952,0.0723282322287559,0.0766330435872078,0.0052240272052586,0.7615979909896851,-0.6480286121368408,0.030878284946084,0.0028520226478576,-0.0440947413444519,-0.0152639375808628,0.0041768287556784,-0.4194856867635757,0.9076239274118978,-0.8657754191488897,0.0080612396968057,-3.104235594161056,19370,0.1116634998203036,serve,serves_watch-right
260,1761597282976005376,26.20700526237488,0.0571342855691909,0.094528280198574,0.077883668243885,0.0063100145198404,0.7612734436988831,-0.6484003067016602,0.0419687777757644,0.0013760924339294,-0.0628271102905273,-0.0154262080090169,0.0036494851157988,-0.4192690308312758,0.907723696132106,-0.8652747736548408,0.0097313571958853,-3.10311302483449,19380,0.1351509826968547,serve,serves_watch-right
270,1761597282986051328,26.2170512676239,0.0792262703180313,0.103780098259449,0.0696491748094558,0.0074956864118576,0.7607718110084534,-0.6489762663841248,0.0453912578523159,0.0077523589134216,-0.0662642121315002,-0.0155502360353724,0.0030473421006653,-0.4189302869981544,0.9078802072661688,-0.8645014743885393,0.0115495030342568,-3.1020114874765197,19390,0.14798012790535353,serve,serves_watch-right
280,1761597282996096256,26.22709631919861,0.0926030650734901,0.1293605715036392,0.0880529433488845,0.0088486308231949,0.7601822018623352,-0.6496497988700867,0.0359511561691761,0.0088455080986022,-0.0540093183517456,-0.0156560103573823,0.0023437083227421,-0.418532691635161,0.908063821366098,-0.8635934663159047,0.0136197746629161,-3.100837864907694,19400,0.1818318067697592,serve,serves_watch-right
290,1761597283006142464,26.237142324447632,0.115215964615345,0.1503433436155319,0.1013469099998474,0.0104741370305418,0.7594944834709167,-0.6504294872283936,0.0280542951077222,0.0046198964118957,-0.0533058643341064,-0.0157942746722541,0.0015040061958954,-0.4180705746848817,0.9082760342730632,-0.8625356480144618,0.0161020260149141,-3.0994080104744532,19410,0.21482326605435337,serve,serves_watch-right
300,1761597283016188416,26.247188329696655,0.1560584306716919,0.1743168830871582,0.0906249359250068,0.0122879492118954,0.7585330009460449,-0.6515188217163086,0.0236922614276409,0.01438570022583,-0.0474100112915039,-0.015900234655436,0.000542737650636,-0.4174210041628631,0.908573983902681,-0.8610588767006572,0.0188582311187197,-3.0979347453607926,19420,0.2509053377757134,serve,serves_watch-right
310,1761597283026234368,26.25723433494568,0.2033447325229644,0.1732977032661438,0.0907479748129844,0.0141128078103065,0.7572556734085083,-0.6529660820960999,0.0215164609253406,0.0290602445602417,-0.0409273505210876,-0.0159532512108811,-0.0004521842921757,-0.4165534305700928,0.9089711553818894,-0.8591009434437935,0.0216100218934901,-3.0965951241095944,19430,0.2821637275321093,serve,serves_watch-right
320,1761597283036280320,26.267280340194706,0.2071636319160461,0.2018899917602539,0.1082343757152557,0.0161661636084318,0.7558093070983887,-0.6545921564102173,0.020027682185173,0.0327038168907165,-0.0415900349617004,-0.0160464842765863,-0.0015554860675772,-0.4155736888553998,0.9094166222964534,-0.8568892364351473,0.0246915226472228,-3.095028637424729,19440,0.30885436575848096,serve,serves_watch-right
330,1761597283046325248,26.27732515335083,0.206481859087944,0.2284014821052551,0.0967066138982772,0.0184929780662059,0.7543718814849854,-0.6561868190765381,0.0303961765021085,0.0315320491790771,-0.0483725070953369,-0.0160988048369665,-0.0028266281729647,-0.414606567831243,0.9098539822548216,-0.8546967191837248,0.0281750323339774,-3.093376662495002,19450,0.32272924306911077,serve,serves_watch-right
340,1761597283056371200,26.287371158599857,0.2204236835241317,0.251055508852005,0.0843555927276611,0.0208850298076868,0.7528275847434998,-0.657886266708374,0.0296063143759965,0.0443220138549804,-0.0522271990776062,-0.0160217415306826,-0.0041923838052573,-0.4135689617512962,0.9103221097551096,-0.8523474345357251,0.0317349950776677,-3.09198753128009,19460,0.34457413543056414,serve,serves_watch-right
350,1761597283066417152,26.297417163848877,0.2174172401428222,0.2886209785938263,0.1012011542916297,0.0235085729509592,0.7512608766555786,-0.6595866084098816,0.0237936694175004,0.0393122434616088,-0.0597127079963684,-0.0159041615744699,-0.0057021573319226,-0.4125217389785387,0.910791068593485,-0.8499703781085055,0.0356262936619242,-3.0905477816949563,19470,0.37525191435319527,serve,serves_watch-right
360,1761597283076463104,26.3074631690979,0.1969199925661087,0.3245019912719726,0.1076072081923484,0.0263921953737735,0.749818742275238,-0.6611167192459106,0.0182550214231014,0.0249310135841369,-0.0611122846603393,-0.0157531858177196,-0.0073666669659303,-0.4115669718412788,0.9112135605700756,-0.8477880439444285,0.0398994431786021,-3.089013237652839,19480,0.3945355967041036,serve,serves_watch-right
370,1761597283086508288,26.317508220672607,0.1770363003015518,0.3534478843212127,0.1175671592354774,0.0295114144682884,0.7485008835792542,-0.6624767780303955,0.002913512289524,0.0204657912254333,-0.0535113811492919,-0.0155596307974437,-0.0091766171411767,-0.4107035374981302,0.9115899847382506,-0.8457985457172202,0.0445176614198043,-3.0874206103795028,19490,0.4124188350285456,serve,serves_watch-right
380,1761597283096554240,26.32755422592163,0.1608191430568695,0.3718600273132324,0.1257543414831161,0.0328627377748489,0.747310221195221,-0.6636621952056885,-0.0102034397423267,0.010899007320404,-0.0412328243255615,-0.0153678996905484,-0.0111101527757517,-0.4099334900881252,0.911918293685744,-0.844004832622696,0.0494768526686592,-3.0856737365970366,19500,0.4242131906115085,serve,serves_watch-right
390,1761597283106600192,26.337600231170654,0.1532307267189026,0.369389921426773,0.1222022175788879,0.0362816974520683,0.7462326884269714,-0.6646957397460938,-0.0137292109429836,0.0117323994636535,-0.0319595336914062,-0.0151651825129089,-0.0130832243038065,-0.4092443634212087,0.9122049855862894,-0.8423846677850563,0.0545298008921734,-3.0839118394084832,19510,0.4181649813694093,serve,serves_watch-right
400,1761597283116646400,26.34764623641968,0.1702819764614105,0.3664939105510711,0.1117438897490501,0.0396039150655269,0.7452117800712585,-0.6656507849693298,-0.0135266557335853,0.0191467404365539,-0.0216813683509826,-0.0149174785313897,-0.0150215960494653,-0.4085938804417355,0.9124708081762168,-0.8408524198562829,0.0594264831675904,-3.0823238174533727,19520,0.4192856244552975,serve,serves_watch-right
410,1761597283126692352,26.3576922416687,0.1534388214349746,0.388130247592926,0.1101803481578826,0.0429698973894119,0.7441970109939575,-0.666576623916626,-0.0178996995091438,0.0073899030685424,-0.004901647567749,-0.0146385250783965,-0.0169964701211354,-0.4079495168212682,0.912728862206188,-0.8393318524551338,0.0643744791178481,-3.08078897030611,19530,0.43165758436530716,serve,serves_watch-right
420,1761597283136737280,26.367737293243408,0.1682217866182327,0.3734476566314697,0.0883757174015045,0.0462601296603679,0.7432181239128113,-0.667448103427887,-0.0263626798987388,0.0047829747200012,0.0086345672607421,-0.0142838719774949,-0.0189620427195752,-0.4073283724207905,0.9129732452239486,-0.837867568573964,0.0691982922730411,-3.079480876865722,19540,0.4190131133542206,serve,serves_watch-right
430,1761597283146783232,26.37778329849243,0.1765920966863632,0.3689503967761993,0.0810453668236732,0.049362689256668,0.7421293258666992,-0.6684365272521973,-0.0406041368842124,0.0060853958129882,0.0057625770568847,-0.0138982486641332,-0.020837571624345,-0.4066294916804268,0.913249727363176,-0.836241687999338,0.0737141783968791,-3.078393460784959,19550,0.4169862292414277,serve,serves_watch-right
440,1761597283156829440,26.387829303741455,0.1736477464437484,0.3790730237960815,0.057826779782772,0.0524139553308486,0.7410294413566589,-0.6694237589836121,-0.0431976504623889,-0.0119034647941589,0.0018669962882995,-0.0134297082678909,-0.0227202646907207,-0.4059210687068608,0.9135270089924816,-0.8346022117849643,0.0781377106262157,-3.0775372155240417,19560,0.4209439792596422,serve,serves_watch-right
450,1761597283166875392,26.39787530899048,0.1541041433811187,0.3778237402439117,0.0323943868279457,0.0553116053342819,0.7399970293045044,-0.670332133769989,-0.0566544011235237,-0.0156165361404418,0.0134259462356567,-0.0128468723528169,-0.0245676918520381,-0.4052534560519166,0.913783995708832,-0.8330659110137871,0.0823272285188744,-3.077036770673278,19570,0.40932659576075164,serve,serves_watch-right
460,1761597283176920320,26.407920360565186,0.139163538813591,0.386426568031311,-0.000665561761707,0.0580000467598438,0.7391221523284912,-0.6710695624351501,-0.0733656361699104,-0.0235612988471984,0.0139955282211303,-0.0121357714856431,-0.0263555512372992,-0.404685824976669,0.9139952849181964,-0.8317661952878592,0.0862150176702608,-3.076943444770013,19580,0.4107218352949328,serve,serves_watch-right
470,1761597283186966272,26.41796612739563,0.116578072309494,0.4058489799499511,-0.0160684864968061,0.0605878457427024,0.7383719086647034,-0.6716665625572205,-0.0809430629014968,-0.0480032563209533,0.0197653770446777,-0.0112721745113918,-0.0281542486446582,-0.4041955557098769,0.914169632965176,-0.8306529685514602,0.089961759519774,-3.077240087716614,19590,0.422566015822512,serve,serves_watch-right
480,1761597283197012224,26.428012132644653,0.1022035256028175,0.3878999352455139,-0.0313534326851367,0.0631132572889328,0.7377482056617737,-0.6721192598342896,-0.0867643728852272,-0.0720987915992736,0.025924801826477,-0.010331237184703,-0.0299517460456079,-0.4037861665542788,0.9143045496748904,-0.8297285977988638,0.0936273292786451,-3.0777342123960443,19600,0.4023617255036332,serve,serves_watch-right
490,1761597283207058176,26.438058137893677,0.098668448626995,0.3543757796287536,-0.0714281499385833,0.0652438625693321,0.7371905446052551,-0.672527551651001,-0.0995913967490196,-0.0593035817146301,0.0312464237213134,-0.0093348152611609,-0.0315565574540176,-0.4034109706651434,0.9144269379756024,-0.8289029696617326,0.0967102889998797,-3.078603712102146,19610,0.37472608201937807,serve,serves_watch-right
500,1761597283217104128,26.4481041431427,0.1110121980309486,0.3400999307632446,-0.1057695150375366,0.0669100433588028,0.736609160900116,-0.6730007529258728,-0.1008455976843833,-0.0361697077751159,0.0422787070274353,-0.0081910324638594,-0.032970783999132,-0.4030044137234974,0.9145672843387928,-0.8280429230229317,0.099094820744926,-3.0801076827582703,19620,0.3730668322540909,serve,serves_watch-right
510,1761597283227149312,26.458149194717407,0.0996207892894744,0.3253896832466125,-0.1236499845981597,0.0683101192116737,0.7360365390777588,-0.6734864115715027,-0.1004146113991737,-0.0436232089996337,0.0582062602043151,-0.0069834225604615,-0.0342661262895892,-0.4025948658641955,0.9147100253466832,-0.8271966045432316,0.1010819290625407,-3.0819268048100623,19630,0.3620663838484785,serve,serves_watch-right
520,1761597283237195264,26.46819519996643,0.0795375630259513,0.309829980134964,-0.1549356430768966,0.0694421380758285,0.7355780601501465,-0.6738713383674622,-0.1133264154195785,-0.0505805611610412,0.0607274770736694,-0.0056892333766998,-0.0354522329362557,-0.4022529786301119,0.9148241432149375,-0.8265196178558898,0.1026870867758438,-3.0840933828078594,19640,0.3554235417332269,serve,serves_watch-right
530,1761597283247241216,26.478241205215458,0.0434599891304969,0.3014636635780334,-0.1857862323522567,0.0702217519283294,0.7353484630584717,-0.6740412712097168,-0.1291512101888656,-0.0522429943084716,0.0528254508972168,-0.0042835895305407,-0.0364951732014878,-0.4020540664320704,0.9148783197362234,-0.8261806919233966,0.1038057305254591,-3.086696300141787,19650,0.35677112445482373,serve,serves_watch-right
540,1761597283257287168,26.48828721046448,0.0196113772690296,0.3193603456020355,-0.2119986712932586,0.0708548128604888,0.7353240251541138,-0.6740015745162964,-0.1390463411808014,-0.0665008425712585,0.0435389876365661,-0.0027450401476747,-0.0375177012545948,-0.401984621498111,0.9148733052915244,-0.8261446683019218,0.1047408788340389,-3.089651046042735,19660,0.38382166834553116,serve,serves_watch-right
550,1761597283267333376,26.4983332157135,-0.0028891372494399,0.313341349363327,-0.2377066910266876,0.0713536664843559,0.735472559928894,-0.6737868785858154,-0.144244909286499,-0.0862568616867065,0.0551650524139404,-0.0010678891821275,-0.0385295331618105,-0.4020224297667465,0.91481818323385,-0.8263638771234442,0.1055062242714353,-3.092967336271314,19670,0.39331363985213347,serve,serves_watch-right
560,1761597283277378304,26.508378267288208,-0.0008502206765115,0.2951109409332275,-0.2804704904556274,0.0714798718690872,0.7357461452484131,-0.6734747886657715,-0.1562424600124359,-0.080625295639038,0.0569891929626464,0.0007297314072967,-0.0393922305825224,-0.4021328914545085,0.914733287380058,-0.8267677825343882,0.1057400662380268,-3.0967692904304647,19680,0.4071300607301232,serve,serves_watch-right
570,1761597283287424256,26.51842427253723,-0.0050268564373254,0.2972129583358764,-0.3186506330966949,0.0712607502937316,0.7360162138938904,-0.6732028126716614,-0.1644461750984192,-0.0770959258079528,0.0593875050544738,0.0027070277467196,-0.0401454186361618,-0.4022274687055697,0.9146551992376056,-0.8271666325006456,0.1054605924622946,-3.101190762159191,19690,0.43577406744932556,serve,serves_watch-right
580,1761597283297470208,26.528470277786255,0.0007601589895784,0.2795136272907257,-0.3692904710769653,0.0706653669476509,0.7363269925117493,-0.6729256510734558,-0.164766326546669,-0.0832050442695617,0.0574471950531005,0.004871536757653,-0.0407761694205434,-0.4023362594336498,0.9145704857243404,-0.8276258278653049,0.1046286726129039,-3.106261896765009,19700,0.46314565496305277,serve,serves_watch-right
590,1761597283307516416,26.53851628303528,-0.0019876901060342,0.241809144616127,-0.4044905304908752,0.0695265531539917,0.736626148223877,-0.6727168560028076,-0.1707228571176529,-0.0658650398254394,0.0572230815887451,0.0071902012925353,-0.0411775523140383,-0.4024251115486785,0.9144981307973732,-0.8280680586000583,0.1029862325671963,-3.1120291279947936,19710,0.4712623500649402,serve,serves_watch-right
600,1761597283317561344,26.548561334609985,-0.0588432177901268,0.2193978130817413,-0.424175888299942,0.0679701417684555,0.7371503114700317,-0.6723015904426575,-0.179679736495018,-0.066999614238739,0.0520623326301574,0.0095500089369134,-0.0413736240260174,-0.4026629281886363,0.9143629041418994,-0.8288434138668489,0.1007583127080994,-3.1181270848248723,19720,0.48116848284150104,serve,serves_watch-right
610,1761597283327607296,26.55860733985901,-0.1387537717819214,0.2495056539773941,-0.4482316970825195,0.0663083866238594,0.7381494045257568,-0.6713706851005554,-0.1780179738998413,-0.0819910168647766,0.0538170337677001,0.0120025813326803,-0.0415651891767966,-0.4032207628585499,0.9140794122328826,-0.8303230851898092,0.0984464097019124,-3.1244310724829054,19730,0.5314295200869746,serve,serves_watch-right
620,1761597283337653504,26.568653345108032,-0.1475562006235122,0.2439512461423874,-0.4776049554347992,0.0645627453923225,0.7395077347755432,-0.6700448393821716,-0.1802549064159393,-0.0937252640724182,0.0698403120040893,0.0146145543105866,-0.0417935942627621,-0.4040184169342431,0.913678810275085,-0.832338757915857,0.0960593051233079,-3.1310973810901612,19740,0.5562297513552709,serve,serves_watch-right
630,1761597283347699456,26.578699350357056,-0.1145796105265617,0.1719915717840194,-0.4911718964576721,0.0623531714081764,0.7407300472259521,-0.6689029335975647,-0.1974697709083557,-0.0846326351165771,0.0682101845741272,0.0172312270605107,-0.0417712239687883,-0.4047266913228412,0.9133206992506532,-0.8341564384229925,0.0929484677756461,-3.138114565383633,19750,0.5328784287086336,serve,serves_watch-right
640,1761597283357745408,26.58874535560608,-0.1023894995450973,0.1317280083894729,-0.5270669460296631,0.059548869729042,0.7417649626731873,-0.6680110096931458,-0.2084899246692657,-0.0712327361106872,0.0528682470321655,0.0198525140305048,-0.041423824179669,-0.4053129090561467,0.913023255252829,-0.8356982150354363,0.0889085334384365,3.137607923325855,19760,0.5528430549517542,serve,serves_watch-right
650,1761597283367790336,26.598790168762207,-0.150966614484787,0.1198692247271537,-0.5303016304969788,0.0564155466854572,0.7429290413856506,-0.6669885516166687,-0.2140846103429794,-0.0768066644668579,0.0682184100151062,0.0225185434449007,-0.0409235555033707,-0.405993838731959,0.9126812978796232,-0.8374356198976652,0.0843816402780416,3.1298274645572213,19770,0.5642511577599477,serve,serves_watch-right
660,1761597283377836288,26.60883617401123,-0.2084565311670303,0.1136651262640953,-0.5445094108581543,0.0532056167721748,0.7444499135017395,-0.6655550003051758,-0.2358838319778442,-0.0976603627204895,0.0698366165161132,0.025181133995466,-0.0403957026138765,-0.4069283508101838,0.9122189632002224,-0.8397106160218757,0.0797720836466819,3.1220234452716897,19780,0.5940238924722794,serve,serves_watch-right
670,1761597283387882240,26.618882179260257,-0.2475402951240539,0.1045054495334625,-0.5754225850105286,0.0497073382139205,0.7463098764419556,-0.6637399792671204,-0.2510165274143219,-0.102038025856018,0.0655344128608703,0.0279263732699505,-0.0397640253842581,-0.4081039615697486,0.9116414410620618,-0.8425006745798831,0.0747502437383228,3.1138517123771976,19790,0.6350659320357956,serve,serves_watch-right
680,1761597283397928192,26.628928184509277,-0.2184790074825287,0.084667757153511,-0.6104541420936584,0.0458884760737419,0.7481862902641296,-0.6618999242782593,-0.2579398453235626,-0.0922872424125671,0.0648387670516967,0.0307888754890632,-0.0390169459733445,-0.4093015097389792,0.9110444063465618,-0.8453242348941137,0.0692176648217465,3.105169990388939,19800,0.6538776379501453,serve,serves_watch-right
690,1761597283407974144,26.6389741897583,-0.193929985165596,0.0396403595805168,-0.6396767497062683,0.0416180118918418,0.7498283982276917,-0.6603221297264099,-0.2529522180557251,-0.0870782136917114,0.0598124861717224,0.033738207655672,-0.0380596950913928,-0.4103540041947761,0.9105068653294516,-0.8478026941952044,0.0629435747526632,3.09592931017033,19810,0.6696017782001306,serve,serves_watch-right
700,1761597283418019328,26.649019241333008,-0.2373023480176925,0.0200553089380264,-0.6777740120887756,0.0367726348340511,0.7515350580215454,-0.6586673855781555,-0.2396840006113052,-0.0878235697746276,0.0515965223312377,0.0367571111936194,-0.0368277485608445,-0.4114729798842038,0.9099354703188656,-0.8503859690571399,0.0557709385665649,3.086105126172126,19820,0.7183955952358182,serve,serves_watch-right
710,1761597283428065280,26.65906524658203,-0.2593594193458557,0.0210065897554159,-0.7230850458145142,0.0316175110638141,0.7534708976745605,-0.6567205786705017,-0.2299359887838363,-0.091865062713623,0.0500159263610839,0.0399606168042187,-0.0355267318686259,-0.4127681618984616,0.909265312897751,-0.8533252918397498,0.0481073912666576,3.075625064733403,19830,0.7684793872949032,serve,serves_watch-right
720,1761597283438111232,26.669111251831055,-0.2678546905517578,-0.0165940150618553,-0.739120602607727,0.0260499622672796,0.7554460167884827,-0.6546927690505981,-0.2463258206844329,-0.1264482736587524,0.0465232729911804,0.0432735948613909,-0.0340599296327776,-0.414117785196868,0.9085558018545076,-0.8563345860842921,0.039768621001838,3.064559079336049,19840,0.7863337470728702,serve,serves_watch-right
730,1761597283448157184,26.67915725708008,-0.2792953848838806,-0.034574344754219,-0.75885409116745,0.0201999153941869,0.7574440836906433,-0.6525874137878418,-0.2818270921707153,-0.151914358139038,0.0292659401893615,0.046567958641227,-0.032440273159629,-0.4155164618521987,0.9078132968041256,-0.8593894758012129,0.0309436993151101,3.053269688333096,19850,0.8093582822299374,serve,serves_watch-right
740,1761597283458202368,26.689202308654785,-0.2730542421340942,-0.0473426058888435,-0.8047124147415161,0.0139482775703072,0.7594074010848999,-0.6504659056663513,-0.3015154302120209,-0.1498035192489624,0.0304555296897888,0.0500060311730792,-0.0306741720185324,-0.4169246224024615,0.907045984649118,-0.8624017948791002,0.0214402327242102,3.0413072949917077,19860,0.8510945963398503,serve,serves_watch-right
750,1761597283468248320,26.69924831390381,-0.286551684141159,-0.0851014330983161,-0.8167381882667542,0.0073143886402249,0.7613170742988586,-0.6483384966850281,-0.3263909220695495,-0.1478680372238159,0.0533830523490905,0.0535299979782001,-0.0287453254974232,-0.4183353506116616,0.9062581276037028,-0.8653420671008174,0.0112812654107351,3.0288060314151677,19870,0.8697214437811578,serve,serves_watch-right
760,1761597283478294272,26.709294319152832,-0.3250599205493927,-0.1093857362866401,-0.8489035964012146,0.0002683706406969,0.7633498311042786,-0.6459851861000061,-0.3442930281162262,-0.1624892354011535,0.0434767007827758,0.0570597042549162,-0.0266099000312651,-0.4198801104964648,0.9053931138608255,-0.8684829556886312,0.0004154439177794,3.0159077347757215,19880,0.9155689527465771,serve,serves_watch-right
770,1761597283488340480,26.719340324401855,-0.3415302634239197,-0.1045361161231994,-0.9100702404975892,-0.0071905595250427,0.7655141353607178,-0.6433788537979126,-0.3473473787307739,-0.171596348285675,0.0660321116447448,0.0607884550874343,-0.0243589996746628,-0.4215651927655658,0.904430289166582,-0.8718400418998669,-0.0111757791176449,3.002164979294556,19890,0.9776495093068246,serve,serves_watch-right
780,1761597283498386432,26.72938632965088,-0.2594175338745117,-0.1117487549781799,-0.9727978110313416,-0.0151245724409818,0.7673956155776978,-0.640995442867279,-0.3532683551311493,-0.1677099466323852,0.1058239340782165,0.0648080384676193,-0.0219796344828219,-0.4231065760974055,0.903491874721792,-0.874769327212568,-0.0235910667946986,2.987345339176832,19900,1.0129762199914056,serve,serves_watch-right
790,1761597283508431104,26.739431142807007,-0.1191901117563247,-0.1580747216939926,-1.0446892976760864,-0.0237697381526231,0.7684353590011597,-0.639485776424408,-0.359408974647522,-0.1568631529808044,0.1089682579040527,0.0690758875104799,-0.019287780584812,-0.4241286240389615,0.902757667693384,-0.8763925470134205,-0.0371529773092309,2.971446533230939,19910,1.0632824784872894,serve,serves_watch-right
800,1761597283518477312,26.74947714805603,0.0239241700619459,-0.2062134891748428,-1.135506510734558,-0.033359806984663,0.7684335112571716,-0.6390595436096191,-0.3533742129802704,-0.1378335356712341,0.0927948951721191,0.0736146140968103,-0.0161482968294584,-0.4245108598331595,0.9022808488752576,-0.8763896767084685,-0.0521540713831608,2.954336267346443,19920,1.154327252104613,serve,serves_watch-right
810,1761597283528523264,26.759523153305057,0.1190208569169044,-0.2198885530233383,-1.234360694885254,-0.0438740402460098,0.7675189971923828,-0.6395229697227478,-0.3378856182098388,-0.1259784698486328,0.0878567099571228,0.0785232417827696,-0.0126219023042142,-0.424357391682074,0.901995364822857,-0.8749618162674252,-0.0684969960688649,2.935874144231909,19930,1.259429738099565,serve,serves_watch-right
820,1761597283538569216,26.769569158554077,0.199230208992958,-0.2441622018814087,-1.3357117176055908,-0.0552942305803298,0.7658550143241882,-0.6406314373016357,-0.3289220631122589,-0.1318065524101257,0.0941989421844482,0.0838625039933889,-0.008753318961072,-0.4238014515028042,0.901821900101072,-0.8723699736850755,-0.0860987011042331,2.9159888882520337,19940,1.3723824720360696,serve,serves_watch-right
830,1761597283548615168,26.7796151638031,0.2672755718231201,-0.2283012121915817,-1.42342209815979,-0.0674527063965797,0.7635170221328735,-0.642255425453186,-0.3287112712860107,-0.141065239906311,0.077497124671936,0.0896195163714605,-0.0046294086752631,-0.4229076243906621,0.9017184810484012,-0.8687418009692619,-0.1046411252584797,2.894888344113147,19950,1.4661814840977703,serve,serves_watch-right
840,1761597283558660352,26.789660215377808,0.3035886585712433,-0.2307071685791015,-1.4955192804336548,-0.0801123902201652,0.7606110572814941,-0.644245982170105,-0.3315697312355041,-0.1521210670471191,0.0624130964279174,0.0957382044483005,-0.0003569333611434,-0.4217545336799714,0.9016414294475856,-0.8642538447269296,-0.1237155627055413,2.8729065012336226,19960,1.5433631424249024,serve,serves_watch-right
850,1761597283568706304,26.79970622062683,0.3317278921604156,-0.2343264073133468,-1.5512717962265017,-0.0932739078998565,0.757217526435852,-0.6464686393737793,-0.3483917713165283,-0.134964108467102,0.0387873649597168,0.102152039529069,0.0040936915163556,-0.4204151920543689,0.9015538582267324,-0.8590425188539633,-0.1432933178768916,2.8502186245935315,19970,1.603557434384366,serve,serves_watch-right
860,1761597283578752256,26.809752225875854,0.2925286591053009,-0.1993056982755661,-1.5841456651687622,-0.1066408678889274,0.753613293170929,-0.6486098170280457,-0.3620633482933044,-0.1124847531318664,-0.0011093616485595,0.1087869555311548,0.0085767569152145,-0.4190722158415746,0.9013713089095992,-0.8535418737728167,-0.1629565899897072,2.827143766328175,19980,1.6232107892187126,serve,serves_watch-right
870,1761597283588798208,26.81979823112488,0.2609659433364868,-0.1790361106395721,-1.6264792680740356,-0.1200204193592071,0.7500070333480835,-0.6504494547843933,-0.3756613135337829,-0.0866312384605407,-0.0206320285797119,0.1156453240403599,0.0129703492202929,-0.4178600922743009,0.9010275938141932,-0.8480727021282222,-0.1824668501990147,2.803739746868041,19990,1.6569827886761825,serve,serves_watch-right
880,1761597283598844416,26.8298442363739,0.2321348637342453,-0.1650186032056808,-1.6448965072631836,-0.1334885507822036,0.7463040947914124,-0.6520820260047913,-0.3921156525611877,-0.0532194375991821,-0.0320457816123962,0.1226787220908289,0.0173463136344371,-0.4167230474610133,0.9005502936611244,-0.8424919322145307,-0.201921525477111,2.7800856831424037,20000,1.6693718141778635,serve,serves_watch-right
890,1761597283608889344,26.83988928794861,0.2248516380786895,-0.1419415175914764,-1.6848055124282837,-0.1469297111034393,0.7424916625022888,-0.6535425186157227,-0.3848238289356231,-0.0280446410179138,-0.0463781356811523,0.1298617154212075,0.0216552802508028,-0.4156438306327832,0.8999484360606376,-0.8367824094420289,-0.2211435254780918,2.7563201320717807,20010,1.705659775064058,serve,serves_watch-right
900,1761597283618935296,26.849935293197632,0.2825804650783539,-0.1764179915189743,-1.7362228631973269,-0.1607130467891693,0.7382122874259949,-0.6551442742347717,-0.3633042871952057,0.0142138600349426,-0.0372537970542907,0.1372408776936636,0.0261101378795445,-0.4144226468878725,0.8992981696588922,-0.8304163610870796,-0.240559143970546,2.7322507457966188,20020,1.7678927732372829,serve,serves_watch-right
910,1761597283628981248,26.859981298446655,0.3624718189239502,-0.223956748843193,-1.75524640083313,-0.1749672144651413,0.7331652641296387,-0.6571568250656128,-0.3386436104774475,0.0575756430625915,-0.0233545899391174,0.1446567919024495,0.0308871387393628,-0.4128771977819512,0.8986950124758223,-0.8229648370852948,-0.2602122340509661,2.7083275810640233,20030,1.8062204661956711,serve,serves_watch-right
920,1761597283639027456,26.87002730369568,0.4683878123760223,-0.2482399195432663,-1.7782347202301023,-0.189503014087677,0.7271780371665955,-0.6597732901573181,-0.3051106929779053,0.0834604501724243,-0.0234084725379943,0.1520763051129037,0.0359233804474222,-0.4108805921563406,0.898197950560108,-0.8142019675108981,-0.2796952838828012,2.6849034604563697,20040,1.8555670078628455,serve,serves_watch-right
930,1761597283649072384,26.880072355270386,0.5541716814041138,-0.2666034698486328,-1.7983291149139404,-0.2042425721883773,0.7202322483062744,-0.6629860997200012,-0.2883263826370239,0.094968557357788,-0.027062177658081,0.1595111942826527,0.0411815701150609,-0.4084250755408486,0.897802455309527,-0.8041370126082346,-0.298839036367144,2.6620691690657132,20050,1.9005713004654021,serve,serves_watch-right
940,1761597283659118336,26.89011836051941,0.5969510674476624,-0.2795738577842712,-1.8299435377120972,-0.2191310971975326,0.7125316262245178,-0.6665434837341309,-0.2953494787216186,0.1089405417442321,-0.0433411598205566,0.1670027904087433,0.0465995589978513,-0.4056559355051429,0.8974306547235175,-0.7930997928568891,-0.3176265606276062,2.6396923033256625,20060,1.9450463927879842,serve,serves_watch-right
950,1761597283669164288,26.900164127349857,0.6038545370101929,-0.2735505998134613,-1.8600397109985352,-0.2342015653848648,0.7042794823646545,-0.6701790690422058,-0.3017481565475464,0.1228384375572204,-0.0532553791999816,0.1746213241323557,0.0521471122168394,-0.4027296101445586,0.8969932517472033,-0.7814077204888485,-0.3361947197847849,2.6174907086041577,20070,1.9746437549638196,serve,serves_watch-right
960,1761597283679210240,26.910210132598877,0.5872374773025513,-0.2686951458454132,-1.8870683908462524,-0.2492004930973053,0.6957083940505981,-0.6737127304077148,-0.3037627339363098,0.1125648617744445,-0.0627221465110778,0.1823586124938662,0.0576708593644015,-0.3997720562256988,0.8964383153890988,-0.7694056443823671,-0.3542843127702466,2.59551026308905,20080,1.994510478257915,serve,serves_watch-right
970,1761597283689256192,26.9202561378479,0.5907959938049316,-0.2698253989219665,-1.929452657699585,-0.2643316686153412,0.6868211030960083,-0.6770565509796143,-0.3030206263065338,0.1151198148727417,-0.0811069011688232,0.1902459118157886,0.0632687566359444,-0.3968233670806919,0.8957314648846479,-0.7571063020173652,-0.3722144946086296,2.5735319699811336,20090,2.035837225935155,serve,serves_watch-right
980,1761597283699301120,26.930301189422607,0.6012604832649231,-0.2713093757629394,-1.9465656280517576,-0.2795276939868927,0.6774487495422363,-0.6803876757621765,-0.3004436194896698,0.1321978569030761,-0.0834977626800537,0.1982466315136825,0.0689451629310185,-0.3937673375041196,0.8949257189043821,-0.7442886614009412,-0.3898126322800441,2.551778578661948,20100,2.055295767140432,serve,serves_watch-right
990,1761597283709347328,26.94034719467163,0.6250163912773132,-0.3003817498683929,-1.9543356895446775,-0.2947013974189758,0.6676489114761353,-0.6836636662483215,-0.2903205454349518,0.1454308629035949,-0.1006991267204284,0.2062321006773626,0.0747079063790129,-0.3906237448156611,0.8940358239684838,-0.7310462467590292,-0.4069939728627124,2.5305483611161255,20110,2.0737171148561666,serve,serves_watch-right
1000,1761597283719393280,26.950393199920654,0.6677913069725037,-0.3355354964733124,-1.9675586223602295,-0.3099986314773559,0.6572576761245728,-0.6869593858718872,-0.274107813835144,0.1836236715316772,-0.1203526258468627,0.2140230320013093,0.0807366954886301,-0.3873007913245255,0.8931258724648065,-0.7171743327666752,-0.42390289251834,2.5102463759452074,20120,2.104712862004155,serve,serves_watch-right
1010,1761597283729439232,26.96043920516968,0.705135703086853,-0.3281444311141968,-1.969236135482788,-0.325272262096405,0.6462291479110718,-0.6903519630432129,-0.2632439732551574,0.1984668970108032,-0.1325087547302246,0.2217844898905873,0.0868921082323246,-0.3837626735949785,0.892181314077202,-0.7026328004740066,-0.4403177252715343,2.4906179134486837,20130,2.1172590972127705,serve,serves_watch-right
1020,1761597283739485184,26.9704852104187,0.7155627012252808,-0.3384834825992584,-1.977548599243164,-0.3403278589248657,0.634690523147583,-0.6937903165817261,-0.2474865019321441,0.1878955364227295,-0.1393395662307739,0.2296708581516846,0.0929943332231684,-0.3800748494612919,0.8911490344188359,-0.6876079367093992,-0.4560463012966624,2.4713380095391004,20140,2.1300937795660415,serve,serves_watch-right
1030,1761597283749530368,26.980530261993408,0.771210253238678,-0.3720749914646148,-1.9981495141983032,-0.3554328083992004,0.6225684881210327,-0.6971915364265442,-0.2347771525382995,0.2015739679336547,-0.141416311264038,0.237541214483197,0.0992601498183491,-0.3762335213739144,0.8900393019723393,-0.6720205745455223,-0.4714620369124213,2.452586253899095,20150,2.173892024702417,serve,serves_watch-right
1040,1761597283759576320,26.99057626724243,0.8110392689704895,-0.3831187188625335,-2.012200117111206,-0.3706022500991821,0.6096741557121277,-0.7006792426109314,-0.2318452596664428,0.2141936421394348,-0.1448712944984436,0.2453928713136869,0.1057308173820661,-0.3721308642077931,0.8888880146960215,-0.6556494407338833,-0.4865139056506702,2.4344710766435025,20160,2.203069213587582,serve,serves_watch-right
1050,1761597283769622528,27.00062251091003,0.8081784844398499,-0.3954446315765381,-2.045599937438965,-0.3857165575027466,0.5962579250335693,-0.7040591239929199,-0.2324933111667633,0.2028753757476806,-0.1430020332336425,0.2532786238486631,0.1122922075201076,-0.3679142665498424,0.8876257271755047,-0.638831649740007,-0.5011885959853654,2.4167579286539347,20170,2.2347277291438643,serve,serves_watch-right
1060,1761597283779668480,27.010668516159058,0.8353148102760315,-0.3550072908401489,-2.0804553031921387,-0.4006970226764679,0.5823076963424683,-0.7073610424995422,-0.227705717086792,0.2058850526809692,-0.1468717455863952,0.2613111282337806,0.1188645717316973,-0.363580377049778,0.8862262666175625,-0.6215644112743743,-0.5153982001829348,2.399224092081289,20180,2.269818335769724,serve,serves_watch-right
1070,1761597283789714688,27.02071452140808,0.8839782476425171,-0.3334540426731109,-2.126157760620117,-0.4154140055179596,0.5675655007362366,-0.7108450531959534,-0.2164067327976226,0.1903995871543884,-0.1426095962524414,0.2695295491835809,0.1254119484694834,-0.3589558835248927,0.8847465719683936,-0.603545958207081,-0.528865928269929,2.382000235192971,20190,2.3266189984450243,serve,serves_watch-right
1080,1761597283799759616,27.030759572982788,0.9783515334129332,-0.358115941286087,-2.183286666870117,-0.4302001893520355,0.5517610907554626,-0.7144840359687805,-0.2145599424839019,0.2034116387367248,-0.1361171007156372,0.2778908028178968,0.1321783949755407,-0.3539588132383685,0.883186674982242,-0.5844743845268979,-0.5419717804087847,2.36513884100579,20200,2.419123688459828,serve,serves_watch-right
1090,1761597283809805568,27.04080557823181,1.0778608322143557,-0.3568314909934997,-2.2467758655548096,-0.4452500343322754,0.5346267223358154,-0.7182804346084595,-0.1905989944934845,0.2386276721954345,-0.1399959325790405,0.2863997772664984,0.1393191614998693,-0.3484967217995229,0.8815415411018412,-0.5640659809802705,-0.5549114178254784,2.3486634670790902,20210,2.5173626033263523,serve,serves_watch-right
1100,1761597283819851520,27.050851583480835,1.1586501598358154,-0.3245048224925995,-2.306541204452514,-0.4607077240943908,0.5161082148551941,-0.7220669388771057,-0.1540536284446716,0.2453511357307434,-0.135309100151062,0.295157639241834,0.1468947834267615,-0.3426199700434538,0.879724656592428,-0.5423010227366817,-0.5679216134416564,2.3322626984978347,20220,2.6015199212279287,serve,serves_watch-right
1110,1761597283829897728,27.06089758872986,1.1980748176574707,-0.3109488189220428,-2.346869468688965,-0.4755896925926208,0.4965423345565796,-0.7261267900466919,-0.1341057419776916,0.2383972406387329,-0.1325615644454956,0.3040558248589859,0.1544022622390681,-0.3362982846055883,0.8778459055060298,-0.5196107826435461,-0.579859611312587,2.3164532080198197,20230,2.6532750968865666,serve,serves_watch-right
1120,1761597283839943680,27.07094359397888,1.2310941219329834,-0.3431575894355774,-2.376659154891968,-0.4897842109203338,0.476187139749527,-0.7303131222724915,-0.1383132636547088,0.2525268197059631,-0.143664538860321,0.3129728583245568,0.1618027330000542,-0.3296412050572937,0.8759021453783818,-0.4963135792737671,-0.5907549824536068,2.3013482525046265,20240,2.698491913417008,serve,serves_watch-right
1130,1761597283849988352,27.08098840713501,1.2493330240249634,-0.3482434153556824,-2.376552104949951,-0.5036219954490662,0.4551635980606079,-0.7342962622642517,-0.1570683121681213,0.2743285894393921,-0.1408715844154358,0.3218343303597839,0.1692850361148413,-0.3227916430691442,0.8738253944070019,-0.4725559383396451,-0.6011705960319835,2.2868224219771256,20250,2.707416921864823,serve,serves_watch-right
1140,1761597283860034560,27.091034412384033,1.231186032295227,-0.3440739214420318,-2.373352289199829,-0.5168383121490479,0.4338205754756927,-0.7380229234695435,-0.1540448665618896,0.2604085505008697,-0.136137843132019,0.3306059137492741,0.1766719742743974,-0.3158726799726748,0.8716141375967238,-0.4487288593672537,-0.6109280757015302,2.272842284489112,20260,2.695738673941788,serve,serves_watch-right
1150,1761597283870080512,27.101080417633057,1.2372782230377195,-0.3909660577774048,-2.403507947921753,-0.5298598408699036,0.4121349453926086,-0.7412106990814209,-0.1481491327285766,0.2827502787113189,-0.1257631182670593,0.3393480580033685,0.1841698941197072,-0.3089920786104996,0.8691652319193117,-0.4247960331957579,-0.6206278552680186,2.259047192037183,20270,2.7314029939319497,serve,serves_watch-right
1160,1761597283880126464,27.11112642288208,1.2724378108978271,-0.3942680358886719,-2.41760778427124,-0.5425569415092468,0.3898251056671142,-0.744088888168335,-0.1334225535392761,0.3284976184368133,-0.1086027026176452,0.3480708324596236,0.1917679942190286,-0.3019612288639149,0.8665397315053798,-0.4004416746405384,-0.6300270114841655,2.245617156143916,20280,2.760321116336804,serve,serves_watch-right
1170,1761597283890172416,27.121172428131104,1.2977875471115112,-0.39783376455307,-2.4327845573425293,-0.5548022985458374,0.3668208420276642,-0.7467508316040039,-0.0986858010292053,0.3380131125450134,-0.0901631712913513,0.3567563814841487,0.1994311159743864,-0.2947063002299933,0.8637709731883845,-0.375589337978126,-0.6389770795199348,2.232660029952399,20290,2.785850843835769,serve,serves_watch-right
1180,1761597283900217600,27.13121747970581,1.3173997402191162,-0.4173718988895416,-2.428255796432495,-0.5665874481201172,0.3432707786560058,-0.7490953803062439,-0.0908832550048828,0.356237918138504,-0.0993695855140686,0.3653696798177978,0.2071486529220548,-0.2873008017146191,0.8608441679080991,-0.3503970572872733,-0.647560498853912,2.220145617846383,20300,2.7939519663766714,serve,serves_watch-right
1190,1761597283910263552,27.14126348495483,1.3738187551498413,-0.35036301612854,-2.407670736312866,-0.5775837302207947,0.3192489743232727,-0.7513169646263123,-0.0988689064979553,0.3769485056400299,-0.1096296906471252,0.3738294919570519,0.2147736011221516,-0.2796673306683586,0.8578520667475487,-0.3249368940740605,-0.6554008965766269,2.208339547460128,20310,2.7941028237288417,serve,serves_watch-right
1200,1761597283920309504,27.151309490203857,1.3707830905914309,-0.288184642791748,-2.3761727809906006,-0.5873502492904663,0.2948439121246338,-0.7537153363227844,-0.0981966257095336,0.3720262050628662,-0.1189653873443603,0.3821910294787552,0.2220521336924086,-0.2717263266644574,0.8548611897522018,-0.299292167688838,-0.6619743332881705,2.197219928252586,20320,2.758313570809709,serve,serves_watch-right
1210,1761597283930355456,27.16135549545288,1.4051761627197266,-0.3590233922004699,-2.342520236968994,-0.596519947052002,0.2702706754207611,-0.7557232975959778,-0.114570140838623,0.397896409034729,-0.1303240060806274,0.390290078332408,0.2293196944646952,-0.2637248933551195,0.8517835896057074,-0.2736741525143036,-0.6682048416286065,2.1867618236489026,20330,2.7551440806302927,serve,serves_watch-right
1220,1761597283940400640,27.171400547027588,1.3660569190979004,-0.3613535761833191,-2.298750638961792,-0.6053386926651001,0.245694950222969,-0.7570990920066833,-0.1118091344833374,0.4153615832328796,-0.1536369323730468,0.3980892415773627,0.2366770094842047,-0.2558015489359168,0.8485720420652035,-0.2482365461129408,-0.6744665506658706,2.176866740014575,20340,2.6983221478101846,serve,serves_watch-right
1230,1761597283950446592,27.18144655227661,1.3009482622146606,-0.3544831573963165,-2.2772743701934814,-0.6134508848190308,0.2215780019760131,-0.7580113410949707,-0.0651837587356567,0.3758493661880493,-0.1633601188659668,0.4057489504616314,0.2437910533678784,-0.2481133689035312,0.8452062309559633,-0.2234324013347622,-0.6803798835930096,2.167083741201361,20350,2.6465266382519417,serve,serves_watch-right
1240,1761597283960492544,27.191492557525635,1.2297638654708862,-0.3829920589923858,-2.262392282485962,-0.6210792064666748,0.1978130042552948,-0.7583736777305603,-0.0462944507598876,0.3485126793384552,-0.1573062539100647,0.4133490143322503,0.2507708131542803,-0.2406806100024018,0.8416231257373493,-0.199126327340542,-0.6861966578489185,2.157195749442151,20360,2.603348021667707,serve,serves_watch-right
1250,1761597283970538496,27.201538562774655,1.1287001371383667,-0.346709668636322,-2.249503374099731,-0.6281201243400574,0.1747015118598938,-0.7582509517669678,-0.0386889576911926,0.3439905047416687,-0.1587717533111572,0.4209182443428743,0.2574835347475329,-0.2336167031589946,0.8378265376172274,-0.175602610288096,-0.6918080517510645,2.1470442822230567,20370,2.5405584079072363,serve,serves_watch-right
1260,1761597283980584704,27.21158456802368,1.051861047744751,-0.3153728544712066,-2.246457099914551,-0.6343623399734497,0.1521297842264175,-0.7579188346862793,-0.0293339490890502,0.3530429303646087,-0.1504521369934082,0.4285645799136537,0.2638121078955304,-0.2268121337989487,0.8338416946872149,-0.1527227762780308,-0.69688611701498,2.136507619475702,20380,2.500488192904837,serve,serves_watch-right
1270,1761597283990629376,27.22162938117981,1.0053441524505615,-0.3020074963569641,-2.2247672080993652,-0.6398802995681763,0.1300205439329147,-0.7573954463005066,-0.0364044904708862,0.3563838601112366,-0.1364491581916809,0.4361842686154137,0.2698372496180194,-0.220204743960478,0.8297234405401476,-0.1303897044258284,-0.7014925468172601,2.1258390982731417,20390,2.459982626555843,serve,serves_watch-right
1280,1761597284000675328,27.231675386428833,0.9988737106323242,-0.2952196300029754,-2.207693338394165,-0.6448351740837097,0.1080819889903068,-0.7566412091255188,-0.038651704788208,0.36712247133255,-0.1246454119682312,0.4437000453027049,0.275728305673952,-0.2136663519142698,0.8255003837515882,-0.1082935320157786,-0.7057894667441396,2.115293835089262,20400,2.441068044139994,serve,serves_watch-right
1290,1761597284010721536,27.241721391677856,0.9934784173965454,-0.260695219039917,-2.1970465183258057,-0.6491262316703796,0.0862130373716354,-0.7557793259620667,-0.0381448864936828,0.3773642480373382,-0.1157721877098083,0.4511196742129353,0.2814559440432491,-0.2071059779441476,0.8212067756702804,-0.0863201950732833,-0.70962870354834,2.1049254139369067,20410,2.4252782864550944,serve,serves_watch-right
1300,1761597284020767488,27.25176739692688,1.0434480905532837,-0.2392162829637527,-2.184178113937378,-0.6527025699615479,0.0641640573740005,-0.7548922896385193,-0.0325238704681396,0.3901511430740356,-0.1014919877052307,0.4581588687696483,0.2871285502116539,-0.200277458184105,0.8170291504620588,-0.0642081688120057,-0.7129265107436341,2.095540020106647,20420,2.4324149278273492,serve,serves_watch-right
1310,1761597284030813440,27.261813402175903,1.115080714225769,-0.2261241823434829,-2.1411666870117188,-0.655643105506897,0.0417789593338966,-0.7539142370223999,-0.018276572227478,0.3869472444057464,-0.0990520715713501,0.4649028910114716,0.292805400910951,-0.1931524895729126,0.812909828681968,-0.0417911232650603,-0.7157930522946645,2.086958249275897,20430,2.4246921302811826,serve,serves_watch-right
1320,1761597284040858624,27.27185845375061,1.169384241104126,-0.2221118509769439,-2.138244867324829,-0.6580072641372681,0.0190235748887062,-0.752771258354187,0.0009180307388305,0.3768199384212494,-0.127599835395813,0.4716943977161812,0.2984497580594888,-0.1858550843982176,0.8086346779663569,-0.0190247225028231,-0.7183274888671453,2.0783176973013084,20440,2.4472197061825187,serve,serves_watch-right
1330,1761597284050904576,27.28190445899963,1.2213587760925293,-0.1912799030542373,-2.162830114364624,-0.6597590446472168,-0.0042732455767691,-0.7514650225639343,-0.0040135383605957,0.3834236562252044,-0.1601255536079406,0.4784039887943832,0.3041303438672691,-0.1782476483256911,0.8042773534123219,0.0042732585497678,-0.7205061363879568,2.0699914943194355,20450,2.491212428688724,serve,serves_watch-right
1340,1761597284060950528,27.291950464248657,1.5109912157058716,0.3312633633613586,-2.182675361633301,-0.6597660183906555,-0.0283579975366592,-0.7509357929229736,-0.0185634493827819,0.3502574265003204,-0.2018229365348816,0.4851018316846408,0.3093367311139728,-0.1698319164825408,0.8000899886363187,0.028361799663943,-0.7208606328081405,2.0621913021041793,20460,2.6752386069520693,serve,serves_watch-right
1350,1761597284070996480,27.30199646949768,1.3644689321517944,-0.1992489695549011,-2.1809685230255127,-0.6572423577308655,-0.054482351988554,-0.7517074942588806,-0.0422510504722595,0.2856529951095581,-0.2335830330848693,0.492018378814411,0.3139996290041187,-0.1598452087293093,0.7960977555936325,0.0545093426364781,-0.7184518791764036,2.054912302038876,20470,2.580329304004478,serve,serves_watch-right
1360,1761597284081041664,27.312041521072388,1.06773841381073,0.0116343945264816,-2.3758060932159424,-0.6563430428504944,-0.0776649415493011,-0.7504545450210571,-0.0887894034385681,0.2568488717079162,-0.1514924764633178,0.4988204792853332,0.3188935497502793,-0.1519198619762971,0.7914578194822735,0.0777432310776862,-0.7186000398672328,2.0460670713623887,20480,2.604737083090163,serve,serves_watch-right
1370,1761597284091087616,27.32208752632141,0.9744554162025452,0.1978966742753982,-2.399662971496582,-0.6534720063209534,-0.1015475839376449,-0.7501083016395569,-0.0096139311790466,0.2728885114192962,-0.2619461417198181,0.5062893076955587,0.3230814799974483,-0.1434022329766572,0.7865910110502339,0.1017229226402935,-0.7166567887460893,2.0359192266992276,20490,2.59751974557029,serve,serves_watch-right
1380,1761597284101133568,27.332133531570435,0.8972721695899963,0.2517052888870239,-2.386721134185791,-0.6489180326461792,-0.1238991990685463,-0.7507025599479675,-0.0760270357131958,0.1212746948003768,-0.2036583423614502,0.5143204741867301,0.3260907995312347,-0.1353273762299769,0.7815534330477049,0.1242184046803037,-0.7128030140285887,2.0238291857820694,20500,2.5622042602305437,serve,serves_watch-right
1390,1761597284111179520,27.342179536819454,1.031558394432068,0.184340089559555,-2.405111789703369,-0.6440488696098328,-0.1468216925859451,-0.7507625818252563,-0.1455782055854797,0.2688309550285339,-0.1679080724716186,0.5222679804197504,0.3293681030031774,-0.1270250426585704,0.7762844397163918,0.1473543797930047,-0.7090393091860111,2.0117777942792663,20510,2.623481791572458,serve,serves_watch-right
1400,1761597284121225472,27.35222554206848,1.0495628118515017,0.2163663357496261,-2.376436710357666,-0.6387612819671631,-0.1700399070978164,-0.750380277633667,-0.1357138752937317,0.3230397701263428,-0.188309907913208,0.5299212040594488,0.3328218280772503,-0.1184884095167349,0.7709563630033456,0.170870159875027,-0.7052193535334365,2.000224953721335,20520,2.6068847165923765,serve,serves_watch-right
1410,1761597284131270656,27.36227059364319,1.107513427734375,0.2488989830017089,-2.4123613834381104,-0.6326836347579956,-0.1933800876140594,-0.7498770356178284,-0.0305396318435668,0.2622430026531219,-0.1960152387619018,0.5374729314147928,0.3361866200290037,-0.1097270648909283,0.7655464660002346,0.194606097525226,-0.7008348135182842,1.9886788184632864,20530,2.666087796876664,serve,serves_watch-right
1420,1761597284141316608,27.372316598892212,1.247331619262695,0.277987539768219,-2.448451042175293,-0.6256674528121948,-0.2175857126712799,-0.7491306662559509,-0.0483132600784301,0.2817336916923523,-0.186965525150299,0.5449280925236508,0.3396450183813048,-0.1003789799631527,0.7600122822789437,0.2193402309466458,-0.6958338009776898,1.977331006223828,20540,2.76188807640863,serve,serves_watch-right
1430,1761597284151362560,27.382362604141235,1.3599876165390017,0.2664933502674103,-2.4908976554870605,-0.6179143786430359,-0.2428470253944397,-0.7478014826774597,-0.0927179455757141,0.3037601113319397,-0.167802095413208,0.5521990508228748,0.3434006735893491,-0.0904169620791149,0.7543055468356182,0.2452996545597744,-0.6905778466084166,1.9663693619328113,20550,2.8504659536621584,serve,serves_watch-right
1440,1761597284161408768,27.39240860939026,1.4195969104766846,0.3365795612335205,-2.557440280914306,-0.6092372536659241,-0.2688390612602234,-0.7460264563560486,-0.1417087912559509,0.3427678942680359,-0.2067780494689941,0.5594195129776006,0.3472632988604728,-0.079968525854616,0.7483735416790867,0.2721875285988533,-0.6848070006220192,1.9553220598582393,20560,2.944323688000037,serve,serves_watch-right
1450,1761597284171454464,27.402454376220703,1.4894872903823853,0.4624157845973968,-2.659986972808838,-0.5988607406616211,-0.2955338060855865,-0.7443289756774902,-0.1757516860961914,0.344834953546524,-0.2421669960021972,0.5667950861878056,0.3508515411480135,-0.0688383770857549,0.7422316121235629,0.3000142496140208,-0.6775180405510192,1.9436566975126153,20570,3.0834933827670543,serve,serves_watch-right
1460,1761597284181499392,27.41249942779541,1.477013111114502,0.5599203109741211,-2.688518524169922,-0.5867330431938171,-0.3226029276847839,-0.7427460551261902,-0.2228525280952453,0.3022782206535339,-0.2246458530426025,0.5739317280961252,0.3540957031821958,-0.056949031239467,0.7361898201596038,0.3284781546281789,-0.6685834015968626,1.932240223591368,20580,3.118206269612437,serve,serves_watch-right
1470,1761597284191545600,27.422545433044434,1.4072026014328003,0.6120705604553223,-2.704360246658325,-0.5732966065406799,-0.349077820777893,-0.7412662506103516,-0.28760427236557,0.2918726205825805,-0.2438564300537109,0.5810162415214578,0.3568590430879867,-0.0449277695972043,0.7301049183948649,0.3565868473483963,-0.6583107852546403,1.9202008717911656,20590,3.109407319114241,serve,serves_watch-right
1480,1761597284201591552,27.432591438293457,1.3205904960632324,0.6939037442207336,-2.729659080505371,-0.5585739612579346,-0.3746942281723022,-0.739999532699585,-0.3245589137077331,0.3112482130527496,-0.2399198412895202,0.5881899638117806,0.3590481049345398,-0.0329346042496026,0.7239007006226039,0.384066942877547,-0.6465852382627275,1.9070274592711671,20600,3.110707372981508,serve,serves_watch-right
1490,1761597284211637504,27.44263744354248,1.2321429252624512,0.7727639675140381,-2.7544031143188477,-0.5424426198005676,-0.3993366658687591,-0.7391117811203003,-0.3152844309806824,0.2726581692695617,-0.1925593614578247,0.5953346452150409,0.3605661673102417,-0.0208842579910138,0.7177273423427911,0.410793193309322,-0.6331247140628113,1.8929631266441589,20610,3.114815701439126,serve,serves_watch-right
1500,1761597284221683456,27.452683448791504,1.2141427993774414,0.7791745066642761,-2.804084062576294,-0.5252067446708679,-0.423226535320282,-0.7382662892341614,-0.3089149594306946,0.2409450709819793,-0.1622463464736938,0.6031474700925846,0.3616393480097424,-0.0091557086616077,0.7108771191453135,0.4370035878276147,-0.618339760442256,1.87601133417854,20620,3.1534335380835254,serve,serves_watch-right
1510,1761597284231728640,27.46272850036621,1.2138426303863523,0.7677080035209656,-2.880228281021118,-0.5070937871932983,-0.4469583630561828,-0.7369424700737,-0.3038650751113891,0.265485554933548,-0.149623692035675,0.6110356519937848,0.3626590876381994,0.0026740197675568,0.703638269574112,0.463362255557403,-0.6026980372315596,1.8578308551051357,20630,3.218463058791769,serve,serves_watch-right
1520,1761597284241774592,27.47277450561523,1.244363784790039,0.7974904179573059,-2.9670872688293457,-0.487912118434906,-0.4706123173236847,-0.7351638674736023,-0.295077383518219,0.2883613407611847,-0.1402176022529602,0.6190290047989163,0.3635959709121121,0.0146983161327573,0.6959778425178429,0.489984609698477,-0.5859307010740201,1.8382412702960131,20640,3.3148211198313393,serve,serves_watch-right
1530,1761597284251820544,27.482820510864254,1.263405442237854,0.8144004344940186,-3.088586807250977,-0.4672633707523346,-0.4943766593933105,-0.7329779267311096,-0.3136661946773529,0.3059153854846954,-0.1363000273704528,0.6271741358702686,0.3643835900105874,0.0271226211834004,0.6878528539924965,0.5171175953404775,-0.5675278699617062,1.816973269357177,20650,3.4349395693527214,serve,serves_watch-right
1540,1761597284261866496,27.49286651611328,1.236608862876892,0.8377427458763123,-3.1775240898132324,-0.4453029334545135,-0.5179750919342041,-0.7303472757339478,-0.3467502892017364,0.3215029835700989,-0.1498559713363647,0.6354963919174553,0.3650266070472673,0.0397737116416855,0.6792039754692146,0.5444820520946277,-0.5475315455759108,1.793734873303353,20660,3.5110787130677483,serve,serves_watch-right
1550,1761597284271911680,27.50291156768799,1.1572365760803225,0.9532483220100404,-3.2561779022216797,-0.4216869473457336,-0.5407515168190002,-0.7278515696525574,-0.3785449862480163,0.3336745500564575,-0.1644366383552551,0.6439882512961632,0.3651145977618156,0.0525884974891179,0.6702275276894466,0.5713302859800657,-0.5251036088823312,1.7682619305904608,20670,3.584769642159708,serve,serves_watch-right
1560,1761597284281957632,27.51295757293701,1.1206154823303225,1.0196831226348877,-3.306528806686402,-0.396240770816803,-0.5625039935112,-0.7256600856781006,-0.397521436214447,0.3237039446830749,-0.1400778293609619,0.65259449357964,0.3645045679703725,0.0656230837887929,0.6610223067332047,0.5974112453171919,-0.4997992585380995,1.740488417364594,20680,3.6371232422440483,serve,serves_watch-right
1570,1761597284292003584,27.523003578186035,1.078724384307861,1.0626627206802368,-3.368008613586426,-0.3694999814033508,-0.5834192633628845,-0.7232507467269897,-0.4084083139896393,0.3251033425331116,-0.1218267083168029,0.6611730964125169,0.3635437251148292,0.0788072224432701,0.6515177986250387,0.6229324010365955,-0.4723198544116891,1.7107292926580626,20690,3.692746995993126,serve,serves_watch-right
1580,1761597284302049536,27.53304958343506,0.995813250541687,1.1189415454864502,-3.416719675064087,-0.3413368761539459,-0.603037416934967,-0.7209958434104919,-0.3775962293148041,0.3239389061927795,-0.1582918763160705,0.6698430618663632,0.3619904769140541,0.0920052950589141,0.6417228136060444,0.6473033047944454,-0.4421618384272595,1.6784242881505904,20700,3.730636346541974,serve,serves_watch-right
1590,1761597284312095744,27.54309558868408,0.9520418643951416,1.1384433507919312,-3.4700329303741455,-0.3120346963405609,-0.6213575601577759,-0.7187135219573975,-0.3513716757297516,0.3353468179702759,-0.15541672706604,0.6785183816407246,0.3599763643631524,0.1051677569452553,0.6316403566860599,0.670474141206066,-0.4096012832867344,1.6437430338319048,20710,3.7740648527024967,serve,serves_watch-right
1600,1761597284322140416,27.55314040184021,0.8763241767883301,1.1960700750350952,-3.507373571395874,-0.2815994322299957,-0.6383564472198486,-0.7163817882537842,-0.3236556649208069,0.3485767841339111,-0.1233856678009033,0.6871960687838203,0.3575077851058671,0.118310162109696,0.6212508067611635,0.6923611793394604,-0.374531611935669,1.6065676226277985,20720,3.807912427635968,serve,serves_watch-right
1610,1761597284332186368,27.563186407089233,0.8477194309234619,1.271416187286377,-3.5995824337005615,-0.2496754229068756,-0.653986394405365,-0.714117705821991,-0.3067362904548645,0.3722633719444275,-0.132714569568634,0.6958540695601949,0.3544293448524891,0.1316092521418767,0.6106112547261985,0.7128419801555937,-0.3363432372774935,1.5667415320465623,20730,3.910514167199076,serve,serves_watch-right
1620,1761597284342232576,27.573232412338257,0.8334983587265015,1.3724967241287231,-3.698308944702149,-0.21602563560009,-0.6686059236526489,-0.7115469574928284,-0.2976614832878113,0.4094659686088562,-0.1158761382102966,0.7045326845762687,0.3508891982174694,0.1452697462291043,0.5995057697672044,0.7323324745040949,-0.294756236409959,1.5237935320624325,20740,4.031867535300208,serve,serves_watch-right
1630,1761597284352278528,27.58327841758728,0.7199693918228149,1.568170428276062,-3.803496837615967,-0.1801452934741974,-0.6816129088401794,-0.7091907262802124,-0.2843475341796875,0.4158658385276794,-0.1070934534072876,0.7126298158661714,0.3462561360422732,0.1597226603563979,0.5888582245267785,0.7499646540084972,-0.2487541753066682,1.4795062764408278,20750,4.1766137732660775,serve,serves_watch-right
1640,1761597284362324480,27.593324422836304,0.7154334187507629,1.6821013689041138,-3.885632038116455,-0.1419447511434555,-0.6929247975349426,-0.7068994641304016,-0.2904587984085083,0.4386371374130249,-0.0828343629837036,0.720820954803108,0.340671608340087,0.174622814323747,0.5778120451949742,0.7655377183569274,-0.1981637736501146,1.4314402451750508,20760,4.29411764249322,serve,serves_watch-right
1650,1761597284372369408,27.60336947441101,0.6802828907966614,1.7522170543670654,-3.923046588897705,-0.1023962050676345,-0.7027345299720764,-0.7040449380874634,-0.2989099323749542,0.4841218590736389,-0.0045274496078491,0.7286196715951996,0.3345292364930456,0.1899150127650009,0.5666886371391063,0.7792338189904476,-0.1444272054518683,1.3814486163002415,20770,4.3500970053307295,serve,serves_watch-right
1660,1761597284382415616,27.61341547966003,0.5877588391304016,1.8107233047485352,-3.932697534561157,-0.0619297623634338,-0.7104437351226807,-0.7010238170623779,-0.263494461774826,0.5184271335601807,0.0440566539764404,0.7368640404827406,0.3279463903659877,0.2047907967367262,0.5545658081035137,0.7901285585814053,-0.0881131387434039,1.3270910637937825,20780,4.369243554401468,serve,serves_watch-right
1670,1761597284392461568,27.623461484909058,0.5136009454727173,1.8290882110595703,-3.944460391998291,-0.0209193881601095,-0.7159467935562134,-0.6978413462638855,-0.2341160178184509,0.5393568277359009,0.0872456431388855,0.7448615307575885,0.3207755826764877,0.2195047789734906,0.5423117258895233,0.7979793316408915,-0.0299683091094542,1.2712713237113271,20790,4.378140861035752,serve,serves_watch-right
1680,1761597284402507520,27.63350749015808,0.3795952796936035,1.9154791831970217,-3.9342801570892334,0.0205151513218879,-0.7191490530967712,-0.6945528984069824,-0.1892773658037185,0.505739688873291,0.1453585624694824,0.7526209908328867,0.3129880788196844,0.2340128454307805,0.5299416014605122,0.8025769424225129,0.0295286200549962,1.2144521758123217,20800,4.392233308021431,serve,serves_watch-right
1690,1761597284412552704,27.643552541732788,0.3356440663337707,2.00913667678833,-3.965240955352783,0.0627120360732078,-0.719882607460022,-0.6912569403648376,-0.1725295782089233,0.4752537608146667,0.1436038017272949,0.7600853279931611,0.3043376657104579,0.2484957019393687,0.5175892956767492,0.803633191448379,0.090474076727738,1.1572011648773834,20810,4.457849589127943,serve,serves_watch-right
1700,1761597284422598656,27.65359854698181,0.2486446648836136,2.0772957801818848,-4.009913444519043,0.1056220158934593,-0.7186217308044434,-0.6873331665992737,-0.1975409537553787,0.5060973167419434,0.1549997925758361,0.7668954700055738,0.2949713354188087,0.2632970208026959,0.5055077150859127,0.8018182804910592,0.1524765658856729,1.1008447132029218,20820,4.522873838641879,serve,serves_watch-right
1710,1761597284432644608,27.663644552230835,0.0866829231381416,2.198699712753296,-4.0227556228637695,0.1493036299943924,-0.7146097421646118,-0.6834042072296143,-0.2110407203435897,0.5140329599380493,0.1650631427764892,0.7733316635637254,0.2845016272081211,0.2781307767115328,0.4936193859864392,0.7960660243119043,0.2150909203084942,1.04548686747091,20830,4.58523250853294,serve,serves_watch-right
1720,1761597284442690560,27.67369055747986,-0.0633588433265686,2.2883307933807373,-3.9731109142303462,0.1931990683078766,-0.7078417539596558,-0.6794366240501404,-0.2331771254539489,0.524629533290863,0.1984796524047851,0.7798848519500577,0.2733528972889834,0.2925062112975298,0.4811422445565919,0.7864381181838872,0.2770396144312162,0.9900303562490532,20840,4.58542064588828,serve,serves_watch-right
1730,1761597284452736512,27.68373656272888,-0.2460682094097137,2.325925350189209,-3.903163194656372,0.2367268800735473,-0.6982854604721069,-0.6755425930023193,-0.233354702591896,0.5148442983627319,0.2625329494476318,0.7860027327504142,0.2613045532811104,0.3065104300627747,0.4690105562422821,0.7729994491827146,0.3370532265144359,0.9377208916898856,20850,4.55029243263057,serve,serves_watch-right
1740,1761597284462781696,27.69378161430359,-0.3666995465755462,2.3418078422546387,-3.7987656593322754,0.279275506734848,-0.6862272024154663,-0.6716378331184387,-0.2142425775527954,0.5161375403404236,0.3321602940559387,0.7916821951009273,0.2486071531395046,0.3199618339198124,0.4572287244113867,0.7562894876239529,0.3940632298954989,0.8892097900784752,20860,4.477628062046491,serve,serves_watch-right
1750,1761597284472827392,27.703827381134033,-0.4989435970783233,2.3207216262817383,-3.680972099304199,0.3203860521316528,-0.672063946723938,-0.667594850063324,-0.1917544305324554,0.5092527270317078,0.400382936000824,0.7968730719980308,0.2354903095773031,0.3327865598323875,0.4458596556874614,0.7369925722541757,0.4474475566936927,0.8449666202170604,20870,4.379982782570403,serve,serves_watch-right
1760,1761597284482873344,27.713873386383057,-0.613620400428772,2.3231070041656494,-3.593822240829468,0.3600897490978241,-0.65589839220047,-0.6634250283241272,-0.1799902617931366,0.52052241563797,0.4239993691444397,0.8013568182134795,0.2217348726993786,0.345139312064303,0.4353616876826778,0.7153721389756743,0.4972783824802603,0.8061145894652882,20880,4.323067712551633,serve,serves_watch-right
1770,1761597284492919552,27.72391939163208,-0.7096925973892212,2.2635812759399414,-3.511345386505127,0.39832603931427,-0.6380405426025391,-0.6589693427085876,-0.1599227488040924,0.5215244293212891,0.4431338310241699,0.8053240442889896,0.2075953221993009,0.3569586863658342,0.42536792139566,0.6919508532472809,0.5436984920934376,0.7716041380427576,20890,4.23757126180856,serve,serves_watch-right
1780,1761597284502965504,27.733965396881104,-0.9108560085296632,2.283888101577759,-3.3933558464050293,0.4349563121795654,-0.6183222532272339,-0.6545918583869934,-0.1436355412006378,0.4719752669334411,0.4497427344322204,0.8090325466317008,0.193071605600301,0.3680046419036261,0.4156467079608917,0.6666061738003134,0.5864799169235272,0.7408643709015837,20900,4.190545003831153,serve,serves_watch-right
1790,1761597284513010432,27.74401044845581,-1.0772169828414917,2.2974512577056885,-3.2982654571533203,0.4701740145683288,-0.596632719039917,-0.6503581404685974,-0.1377918124198913,0.4312122464179992,0.4597911834716797,0.8122105108729587,0.1777315187262232,0.378460601051282,0.406808410229716,0.6392986269116507,0.6259607176131243,0.7152590777230186,20910,4.161398050596263,serve,serves_watch-right
1800,1761597284523056384,27.75405645370483,-1.2476316690444946,2.275094985961914,-3.2108521461486816,0.5036924481391907,-0.573368489742279,-0.64617520570755,-0.1454619765281677,0.4198193550109863,0.4659537076950073,0.8151567343535119,0.162064920826803,0.3881331821964157,0.3982548789029868,0.6106114053472761,0.6621142956478039,0.693108054391475,20920,4.12822158818775,serve,serves_watch-right
1810,1761597284533102592,27.764102458953857,-1.432531714439392,2.34184193611145,-3.0794177055358887,0.535555899143219,-0.5486160516738892,-0.6420282125473022,-0.1340056657791137,0.3742997050285339,0.4440149664878845,0.8175403320955847,0.1457205218717476,0.3971793246369143,0.3906941364386276,0.5807080708581973,0.6952274723627552,0.6759217400558425,20930,4.125431392202858,serve,serves_watch-right
1820,1761597284543148544,27.77414846420288,-1.612330436706543,2.323763132095337,-2.931913137435913,0.5665628910064697,-0.5222230553627014,-0.6374084949493408,-0.1224863529205322,0.3293672204017639,0.4613678455352783,0.8195420592845452,0.1286908439819286,0.4058748694951927,0.383477751771903,0.5494556543339518,0.7266226704852065,0.6618061721410506,20940,4.073769651893089,serve,serves_watch-right
1830,1761597284553193472,27.784193515777588,-1.7790530920028689,2.3370769023895264,-2.765420436859131,0.5958298444747925,-0.4948403537273407,-0.6325502991676331,-0.1395615339279174,0.3378731906414032,0.4281740188598633,0.8209528507252847,0.1111564581663402,0.4139675061161528,0.3772420820563037,0.5176511019754984,0.7555136530712904,0.6521242722180032,20950,4.034167639606185,serve,serves_watch-right
1840,1761597284563239680,27.79423952102661,-1.8358911275863647,2.3355374336242676,-2.59630823135376,0.6235458254814148,-0.4669642448425293,-0.6270047426223755,-0.0973618030548095,0.3102869987487793,0.392278790473938,0.8218643134576966,0.0934905020376119,0.4216125522824325,0.3715392734621821,0.4858546281998219,0.7826322461224645,0.6453548836159511,20960,3.945383095265383,serve,serves_watch-right
1850,1761597284573285632,27.804285526275635,-1.8191847801208496,2.276011228561402,-2.4506545066833496,0.6493632793426514,-0.4394243359565735,-0.6206718683242798,-0.0507457256317138,0.281266987323761,0.4001671075820923,0.8221596033916673,0.076033770651856,0.4288157487083293,0.3665916581905053,0.4549577280872177,0.8079853824567195,0.6415779782803345,20970,3.807278278230833,serve,serves_watch-right
1860,1761597284583331584,27.814331531524655,-1.7867592573165894,2.2928779125213623,-2.375739812850952,0.6737838983535767,-0.4122365713119507,-0.6132506728172302,-0.0051132440567016,0.2915853261947632,0.3576353788375854,0.8220495703476554,0.0589743978965195,0.4357713820614436,0.3617456558267515,0.4249075623400733,0.8323966442685727,0.6389823623596946,20980,3.7541893164436884,serve,serves_watch-right
1870,1761597284593377536,27.82437753677368,-1.7036460638046265,2.2804691791534424,-2.284700393676758,0.6970698237419128,-0.3855070173740387,-0.6045477390289307,0.0120975971221923,0.3093199133872986,0.3219702839851379,0.8214352597150769,0.0422223156573658,0.4426549368627923,0.3570966744147374,0.3957572411450488,0.8563611896293223,0.6376356283824363,20990,3.650041845876908,serve,serves_watch-right
1880,1761597284603422720,27.83442258834839,-1.682167887687683,2.274021625518799,-2.120701313018799,0.7190267443656921,-0.3597007989883423,-0.5946561694145203,0.0030954480171203,0.3055320978164673,0.2823850512504577,0.8203810873616315,0.0260790334771544,0.4494349786762586,0.3525663461988487,0.3679471983297214,0.8797900238604882,0.637079736053286,21000,3.5352846016600217,serve,serves_watch-right
1890,1761597284613468672,27.844468593597412,-1.662666082382202,2.338578462600708,-1.97771155834198,0.7397346496582031,-0.3347856104373932,-0.5837047100067139,0.0148887038230896,0.2863084673881531,0.2192028164863586,0.8186639708255568,0.0101524039739807,0.4561190208749715,0.3487716734855317,0.3413776944772429,0.9027537313197582,0.6387546542045408,21010,3.4849319556116924,serve,serves_watch-right
1900,1761597284623514624,27.854514598846436,-1.6490116119384766,2.409522294998169,-1.877937078475952,0.759818434715271,-0.3106761276721954,-0.5711008906364441,0.0517354607582092,0.2652049660682678,0.1532390117645263,0.8163404098485053,-0.0055025615260562,0.4630542941389122,0.3451647721922657,0.3159042827852084,0.9262540559462004,0.6413072412922904,21020,3.4715536373669886,serve,serves_watch-right
1910,1761597284633560576,27.86456060409546,-1.5541772842407229,2.4198246002197266,-1.7565521001815796,0.7789322137832642,-0.2876140475273132,-0.5572635531425476,0.071958839893341,0.2492381930351257,0.0809605121612548,0.8134788095269146,-0.0207644025241161,0.4700394316402977,0.3418828525094432,0.2917346799423087,0.9497962856380776,0.6449391981750451,21030,3.36993967413821,serve,serves_watch-right
1920,1761597284643606784,27.87460660934448,-1.5469061136245728,2.521813154220581,-1.6569303274154663,0.7972933650016785,-0.2655133605003357,-0.5420570969581604,0.0945065021514892,0.2211255431175232,-0.0167502760887146,0.8101626694745682,-0.0355836939900596,0.4771847289226001,0.338622019155454,0.268736346733181,0.97370750625889,0.6489233006208183,21040,3.390852137601721,serve,serves_watch-right
1930,1761597284653651456,27.88465142250061,-1.4694525003433228,2.537954568862915,-1.5509642362594604,0.8149661421775818,-0.2444231212139129,-0.5254403948783875,0.1212673783302307,0.1939470618963241,-0.0198324918746948,0.8062840974303411,-0.0501014649082389,0.4845303460965628,0.3355983307527538,0.2469247249541434,0.9981285014419536,0.6537572857670036,21050,3.317528312845767,serve,serves_watch-right
1940,1761597284663697408,27.89469742774963,-1.4582008123397827,2.580087423324585,-1.4297852516174316,0.8317229747772217,-0.2245258092880249,-0.5077648162841797,0.1124298572540283,0.1786121279001236,-0.0313892364501953,0.8019832787428471,-0.0641136646005294,0.491942097824921,0.3327241049996231,0.2264563993554282,1.022693800947294,0.6590857041997283,21060,3.290514638601205,serve,serves_watch-right
1950,1761597284673743360,27.904743432998657,-1.3478041887283323,2.616978168487549,-1.336071252822876,0.8477422595024109,-0.2058472633361816,-0.488835334777832,0.1476038098335266,0.1459412574768066,-0.0652265548706054,0.7971165033946203,-0.0777981391127451,0.4995295655062955,0.3301862887888082,0.2073294360702182,1.047736420873528,0.6653565646376041,21070,3.2326826720409434,serve,serves_watch-right
1960,1761597284683789568,27.91478943824768,-1.2902594804763794,2.663665294647217,-1.244540095329285,0.8630012273788452,-0.1884577572345733,-0.4687350690364837,0.1502281427383422,0.1303522884845733,-0.0702816843986511,0.7918982390228146,-0.0908296529353709,0.5073287298192829,0.3275129298713504,0.1895915229114871,1.0732310626208728,0.6713206649531622,21080,3.210726144931929,serve,serves_watch-right
1970,1761597284693835520,27.924835443496704,-1.2401273250579834,2.680312156677246,-1.1434978246688845,0.8774438500404358,-0.1721790432929992,-0.4477128684520721,0.1451697945594787,0.1286457180976867,-0.0560713410377502,0.7862366918209199,-0.1035297630216185,0.5151942859829827,0.3250975823947307,0.1730413161768244,1.0989849632352515,0.6780181111373892,21090,3.1669506334342774,serve,serves_watch-right
1980,1761597284703880448,27.93488049507141,-1.1846210956573486,2.7114603519439697,-1.03931987285614,0.891059160232544,-0.1571673154830932,-0.4258072972297668,0.134682297706604,0.143709048628807,-0.0370680093765258,0.7802340632563932,-0.1156690291590373,0.5231797322544435,0.3227047249656984,0.1578216562971361,1.125011824623296,0.6847276594015744,21100,3.136164883827736,serve,serves_watch-right
1990,1761597284713926656,27.944926500320435,-1.0719648599624634,2.730308771133423,-0.9540408849716188,0.9038770794868468,-0.1435095369815826,-0.4030026197433471,0.1384202241897583,0.1249548643827438,-0.0574313104152679,0.7739450557055536,-0.1271044344374225,0.5313597210666365,0.3201722178685889,0.1440067618433406,1.1513905691400148,0.690942948499961,21110,3.084459216284092,serve,serves_watch-right
2000,1761597284723972608,27.954972505569454,-0.9353727102279664,2.71871566772461,-0.8886961936950684,0.9158276319503784,-0.1311650872230529,-0.3795463740825653,0.1504259705543518,0.1188665032386779,-0.0316627323627471,0.7671945246076027,-0.1382287460047601,0.539555026883188,0.3180970787986689,0.131544123661692,1.1779125904419048,0.6981507035910257,21120,3.009338451164738,serve,serves_watch-right
2010,1761597284734018560,27.96501851081848,-0.8563662767410278,2.718367338180542,-0.8381267189979553,0.9269410967826844,-0.119888998568058,-0.3555372953414917,0.1649320125579834,0.1072394773364067,-0.0024338662624359,0.7603945749926492,-0.1485232502495879,0.5478797297659083,0.3155451182685477,0.1201780759709905,1.2045424297216996,0.7040264727932665,21130,2.9707474787205213,serve,serves_watch-right
2020,1761597284744064512,27.975064516067505,-0.8127398490905762,2.7092466354370117,-0.7891880869865417,0.9372124075889589,-0.1094179451465606,-0.3311504125595093,0.1776557564735412,0.0848055109381675,0.0256389379501342,0.7535040886756589,-0.1582523033660773,0.5562202775001153,0.3127407207779914,0.1096374609548679,1.231153096010562,0.7092428380380703,21140,2.9365594205750405,serve,serves_watch-right
2030,1761597284754109696,27.985109567642212,-0.8554433584213257,2.7305948734283447,-0.7462001442909241,0.9467220902442932,-0.0994960963726043,-0.3062966167926788,0.1763705015182495,0.0500423386693,0.0264657139778137,0.7463246822813107,-0.1678793931097606,0.5645070387055386,0.3100768808884031,0.0996609895978849,1.2578911039928566,0.7150133936284443,21150,2.957151730567796,serve,serves_watch-right
2040,1761597284764155648,27.995155572891235,-0.9327715039253236,2.750974655151367,-0.7067348957061768,0.9554787874221802,-0.0899276584386825,-0.2810217440128326,0.1523397564888,0.0240096896886825,0.0495307147502899,0.7388753829192105,-0.1775082733275455,0.5726953274635771,0.3075288295967596,0.0900493111751517,1.2847462543864223,0.721408863948906,21160,2.9895482007536045,serve,serves_watch-right
2050,1761597284774201600,28.00520157814026,-1.0546423196792605,2.7746293544769287,-0.6439098715782166,0.9634882807731628,-0.0807243585586547,-0.2552921772003174,0.1177800297737121,0.005208633840084,0.0671817660331726,0.7309892536042116,-0.1874390287303537,0.5807069212798451,0.3054520104639568,0.0808122922082474,1.3117818566346118,0.7294148248238269,21170,3.037343971284679,serve,serves_watch-right
2060,1761597284784247552,28.01524758338928,-1.2053812742233276,2.798851251602173,-0.5933880805969238,0.9707354307174684,-0.0720128640532493,-0.2291001081466674,0.0950298905372619,-0.01172736287117,0.0955399423837661,0.7226799509846493,-0.1975836361565728,0.5885666109725239,0.3037823764127731,0.072075249574963,1.339030530436084,0.738805715883941,21180,3.10461298055616,serve,serves_watch-right
2070,1761597284794292480,28.02529239654541,-1.3474105596542358,2.808774471282959,-0.535019040107727,0.9771935939788818,-0.063696376979351,-0.2025722712278366,0.0842230916023254,-0.0171446800231933,0.1413692533969879,0.7139004754067134,-0.2081635603163567,0.5961390777337195,0.3027083136128436,0.0637395310825708,1.3663914652238138,0.7501937946163209,21190,3.1608503001686747,serve,serves_watch-right
2080,1761597284804338432,28.035338401794434,-1.457590937614441,2.817996025085449,-0.4390835762023926,0.9828231930732728,-0.0562061369419097,-0.1757825762033462,0.0657607913017273,0.0118793658912181,0.1795209646224975,0.7046850546509543,-0.2188992216140025,0.6034830935205131,0.3021759526682474,0.056235773413471,1.3938129413664246,0.7631127314140281,21200,3.2028842198405827,serve,serves_watch-right
2090,1761597284814384384,28.045384407043457,-1.5272635221481323,2.848140239715576,-0.3296761214733124,0.987635850906372,-0.0499608032405376,-0.1485913246870041,0.0430648326873779,0.0486638061702251,0.209153413772583,0.6949336178117689,-0.2296781774835153,0.6106981823318616,0.3022630374433664,0.0499816092375852,1.4214648080760424,0.7775136124326493,21210,3.248557069875963,serve,serves_watch-right
2100,1761597284824430592,28.05543041229248,-1.5264960527420044,2.8441548347473145,-0.2611201405525207,0.9916262626647948,-0.0449851714074611,-0.1210534200072288,0.0350919961929321,0.079195387661457,0.2482507079839706,0.6847949960724842,-0.2402084150749266,0.6178779860395223,0.302626263533354,0.0450003574779128,1.4493217174217137,0.792390354939849,21220,3.23845497897618,serve,serves_watch-right
2110,1761597284834476544,28.065476417541504,-1.553636908531189,2.860403537750244,-0.1908590197563171,0.9947881698608398,-0.0410839542746543,-0.0933209136128425,0.0273982286453247,0.1051556169986724,0.2857037186622619,0.6743195576923994,-0.2505709765874419,0.6249429797089805,0.3032386853224517,0.0410955212603189,1.477260231169673,0.8077802788269828,21230,3.260693669719191,serve,serves_watch-right
2120,1761597284844521472,28.07552146911621,-1.6382673978805542,2.893571615219116,-0.1318182498216629,0.9971393942832948,-0.0382140018045902,-0.0652127489447593,-0.0105671882629394,0.1393034905195236,0.2952694892883301,0.6633931083396586,-0.2609275675770501,0.631910145110905,0.3041643710803761,0.0382233103538915,1.5054895015097165,0.8239909003484027,21240,3.3277699455260024,serve,serves_watch-right
2130,1761597284854567424,28.08556747436523,-1.7241796255111694,2.9207794666290283,-0.0813702642917633,0.9986659288406372,-0.0363053567707538,-0.0367152467370033,-0.0424282550811767,0.1562699526548385,0.3215663433074951,0.6519483589020767,-0.2714418579271797,0.6387187914362963,0.3054845953417145,0.0363133357399528,1.5340485851362569,0.8413776442171854,21250,3.3926935012789614,serve,serves_watch-right
2140,1761597284864613632,28.095613479614254,-1.8851970434188845,2.9549736976623535,-0.0374415963888168,0.9993454813957214,-0.0352937020361423,-0.0079402420669794,-0.0591751933097839,0.163101315498352,0.3171901106834411,0.6400444349673866,-0.282074357261601,0.6453401708520518,0.3071046589600779,0.0353010322901328,1.5628510517256948,0.8597219317473137,21260,3.505315865871686,serve,serves_watch-right
2150,1761597284874659584,28.10565948486328,-2.060586452484131,3.070473909378052,-0.0009126146323978,0.9991477727890016,-0.035228069871664,0.021503247320652,-0.0655084252357482,0.1602280437946319,0.2997399568557739,0.6273814369815559,-0.2931981652577749,0.6517564419033034,0.3092583493918821,0.0352353608884005,1.5923145941123464,0.8799576799991542,21270,3.697813866218518,serve,serves_watch-right
2160,1761597284884705536,28.115705490112305,-2.242856740951538,3.2279305458068848,0.057387713342905,0.997969925403595,-0.0362998992204666,0.0523264072835445,-0.0456690788269043,0.1406700015068054,0.3193624019622803,0.613760221028975,-0.3046965522413412,0.6582729034981124,0.3116649220741241,0.0363078765329229,1.6231812091552087,0.9014685648463894,21280,3.9310603300671456,serve,serves_watch-right
2170,1761597284894750720,28.12575054168701,-2.4311859607696533,3.337033748626709,0.1082594096660614,0.995688021183014,-0.0387174449861049,0.0842998549342155,-0.0475831627845764,0.1464750170707702,0.3359881639480591,0.599096433047884,-0.3166815235144642,0.6647275682909997,0.3145371191487345,0.0387271261007009,1.6552598238257132,0.924780594830856,21290,4.130154902070664,serve,serves_watch-right
2180,1761597284904796672,28.135796546936035,-2.5950536727905273,3.4639952182769775,0.1538015902042389,0.9921989440917968,-0.0425996705889701,0.1171607598662376,-0.0572623610496521,0.1967744827270507,0.3350334167480469,0.5834492253755788,-0.3290308794172092,0.6710581644078679,0.3178154413502368,0.0426125649744547,1.6883339798385528,0.9496197322743828,21300,4.330960790177939,serve,serves_watch-right
2190,1761597284914842624,28.14584255218506,-2.781136274337769,3.6099891662597656,0.1918403208255767,0.9873618483543396,-0.0478964298963546,0.1510710418224334,-0.0643119215965271,0.2133322060108184,0.3325409889221191,0.5667046901537239,-0.341858842970891,0.6772503592183461,0.3214191363344699,0.0479147635975436,1.7226235831041343,0.9760633709262576,21310,4.561090161972761,serve,serves_watch-right
2200,1761597284924888576,28.15588855743408,-2.9176084995269775,3.649057149887085,0.1425106078386306,0.9810906052589417,-0.0545883886516094,0.1856919974088668,-0.0769463181495666,0.2083817273378372,0.3537214994430542,0.5489191222226842,-0.3551689958098296,0.6831551693435132,0.3253334776438619,0.0546155348538601,1.7578545821133569,1.004125005898041,21320,4.674223648158125,serve,serves_watch-right
2210,1761597284934934528,28.165934562683105,-2.9543802738189697,3.809058666229248,0.2654724717140198,0.973394811153412,-0.0622384548187255,0.2205188125371933,-0.0827394723892211,0.2602670192718506,0.3596813082695007,0.5303804691704987,-0.3688694367920173,0.6886179960976437,0.3292977730147575,0.0622787068615314,1.7935818882278385,1.0332973317312193,21330,4.827811756722163,serve,serves_watch-right
2220,1761597284944980736,28.17598056793213,-2.804766893386841,4.001266956329346,0.2917854785919189,0.9638150930404664,-0.0719959512352943,0.2566646635532379,-0.0741515755653381,0.3298084437847137,0.3457065522670746,0.5109104019845943,-0.3817977672755094,0.6946674032033429,0.3326231010494805,0.0720582932225752,1.8310570477751311,1.060481174347029,21340,4.895098910907633,serve,serves_watch-right
2230,1761597284955025408,28.186025381088257,-2.659191131591797,4.119370937347412,0.2035576105117797,0.9524351954460144,-0.0818760469555854,0.2935356199741363,-0.0128754377365112,0.2613651752471924,0.3291297554969787,0.4909933337844422,-0.3945980612193231,0.7007568582468242,0.3348993833234465,0.0819677998299264,1.869754262235326,1.0862198814884971,21350,4.907336354336864,serve,serves_watch-right
2240,1761597284965071360,28.19607138633728,-2.572148323059082,4.3083930015563965,0.1771170347929,0.9390459656715392,-0.0918805077672004,0.331286072731018,0.0208690762519836,0.3437725901603699,0.2952397763729095,0.4705153513520766,-0.4073412451968385,0.7069060423223188,0.3361133592779705,0.0920102808534214,1.9099545626069845,1.11064879413303,21360,5.020913034069562,serve,serves_watch-right
2250,1761597284975117568,28.206117391586304,-2.5747673511505127,4.545010089874268,0.0967838540673255,0.9233432412147522,-0.1021934896707534,0.3701261579990387,0.0456049442291259,0.3709617853164673,0.2708801627159118,0.4491362389452615,-0.4203706754241729,0.7129877818117196,0.3364720362466709,0.1023722109256327,1.9520389982129345,1.1347473935963106,21370,5.224548855548932,serve,serves_watch-right
2260,1761597284985163520,28.216163396835327,-2.786299705505371,4.896012306213379,0.0621149130165576,0.9047732353210448,-0.1132705435156822,0.4105550348758697,0.0770536661148071,0.2896774113178253,0.2561320662498474,0.4263543976025331,-0.4339262168101058,0.7190170743133677,0.3360721621459659,0.1135141675068334,1.9967773703647391,1.1591681393198912,21380,5.633672054167798,serve,serves_watch-right
2270,1761597284995209472,28.22620940208435,-3.2260966300964355,5.265125751495361,0.07303386926651,0.8826581835746765,-0.1269103735685348,0.452557772397995,0.0704820752143859,0.212786853313446,0.2290524244308471,0.4010880024028181,-0.4486499022760036,0.7245634211087615,0.3359309526993548,0.1272535424972225,2.0445692210672197,1.186661105379098,21390,6.175320444465956,serve,serves_watch-right
2280,1761597285005254400,28.236254453659058,-3.519115924835205,5.646467685699463,0.0574436374008655,0.8565838932991028,-0.1435469090938568,0.4956394135951996,0.0403735637664794,0.2346418648958206,0.2495693564414978,0.3733146221133008,-0.4641970192737598,0.7296169121900948,0.3358817272089001,0.1440445168342324,2.095349357744626,1.2164227818665116,21400,6.653576030192698,serve,serves_watch-right
2290,1761597285015300608,28.24630045890808,-3.8316259384155273,5.959794044494629,0.0452753864228725,0.8263117671012878,-0.16304911673069,0.5390952825546265,0.0459721088409423,0.2540067434310913,0.310895562171936,0.343117678962698,-0.480538448576196,0.7339144673349235,0.3357418428829247,0.1637803432416809,2.1488649178366273,1.2482716843142792,21410,7.085375942414633,serve,serves_watch-right
2300,1761597285025346560,28.256346464157104,-3.989878416061402,6.280424118041992,0.008873526006937,0.7918180227279663,-0.1853780448436737,0.5819445252418518,0.0741336345672607,0.3068380057811737,0.3455151915550232,0.3107860867078305,-0.4973019279513918,0.7373351105733905,0.3353204567901899,0.1864565685987234,2.204593931575882,1.2813208440263348,21420,7.440627367157958,serve,serves_watch-right
2310,1761597285035392512,28.266392469406128,-4.041827201843262,6.680600166320801,-0.0246151927858591,0.752566397190094,-0.2095882296562194,0.6242731213569641,0.1136752367019653,0.3656703531742096,0.3930151462554931,0.2764437684195757,-0.5144419639319201,0.7399229800075198,0.3338298685713818,0.2111538195789865,2.263283221953003,1.314558317281222,21430,7.808161859203581,serve,serves_watch-right
2320,1761597285045438464,28.27643847465515,-4.03126859664917,7.030981540679932,-0.0266280975192785,0.7081449627876282,-0.2355848252773285,0.6656055450439453,0.1069490909576416,0.3885083794593811,0.3766155838966369,0.2402659289517882,-0.5313936478587792,0.7419053545027389,0.33086187871072,0.2378202834361288,2.3252384737810385,1.346349788104882,21440,8.104723127861261,serve,serves_watch-right
2330,1761597285055483648,28.28648352622986,-3.945939064025879,7.323488235473633,-0.0311932880431413,0.6587955951690674,-0.2627695500850677,0.7049399614334106,0.0726496577262878,0.5063303709030151,0.3389900326728821,0.2025911371468495,-0.5481783493865325,0.742947166938084,0.3263231296394632,0.2658914949215619,2.390018364799579,1.3767785971117883,21450,8.318947532791938,serve,serves_watch-right
2340,1761597285065529600,28.29652953147888,-3.874577283859253,7.643826961517334,-0.0479531809687614,0.6045175194740295,-0.2910598218441009,0.7415139079093933,0.0494131445884704,0.6276229619979858,0.3116325139999389,0.1636797823071716,-0.5642628024875619,0.7432122455136733,0.3200812713227866,0.2953344281849128,2.4576232033385357,1.40455648690831,21460,8.569873934532671,serve,serves_watch-right
2350,1761597285075575552,28.306575536727905,-3.694559335708618,7.956771373748779,-0.2055255025625229,0.545434832572937,-0.3190231919288635,0.7750646471977234,0.0385496020317077,0.7018356323242188,0.3362330198287964,0.1237795629128429,-0.5802298223663056,0.7422032553622293,0.3116830761046531,0.3246986532001862,2.5283689403972587,1.4306658303221118,21470,8.77509088906681,serve,serves_watch-right
2360,1761597285085621504,28.31662154197693,-3.8094699382781982,8.30297565460205,-0.3129158616065979,0.4818141460418701,-0.3472335636615753,0.8045395612716675,0.0403721034526824,0.6246994137763977,0.4336500763893127,0.0828147215620479,-0.5959605015122966,0.7396626705651292,0.3014496980891054,0.3546195062664603,2.602004880120441,1.4554621322443684,21480,9.140535119346385,serve,serves_watch-right
2370,1761597285095667712,28.326667547225952,-4.212788105010986,8.685784339904785,-0.3858638405799866,0.413276195526123,-0.3784366846084595,0.8282440304756165,0.0117115378379821,0.5635258555412292,0.5409117937088013,0.0394898401579206,-0.6116896383189027,0.734818203506329,0.2903764035639993,0.3881067841488044,2.678762359230653,1.4809691880721505,21490,9.661227878511323,serve,serves_watch-right
2380,1761597285105713664,28.336713552474976,-4.474903106689453,8.98099422454834,-0.5014610290527344,0.3406614661216736,-0.4131025671958923,0.84456866979599,-0.026193082332611,0.5395674109458923,0.6538902521133423,-0.0059752092645467,-0.6267367100786911,0.7276574980927975,0.2787113497089193,0.4258582983678121,2.7581969183098836,1.5059180997920305,21500,10.046615262827983,serve,serves_watch-right
2390,1761597285115758592,28.346758604049683,-5.1608805656433105,9.168710708618164,-0.4746770560741424,0.2652759552001953,-0.4520985186100006,0.8516078591346741,-0.0420551002025604,0.4186054170131683,0.7327581644058228,-0.0536846064093155,-0.6409488398382879,0.7176269952289106,0.2670470593865647,0.4691166366319631,2.8396189497809075,1.530715883695722,21510,10.532106274564809,serve,serves_watch-right
2400,1761597285125804544,28.356804609298703,-5.9784064292907715,9.193838119506836,-0.4646307528018951,0.1887950152158737,-0.4982403516769409,0.8462344408035278,-0.0533427596092224,0.4367627203464508,0.8568446040153503,-0.1041299831923682,-0.6529338542999089,0.7048365871705307,0.2569818153229395,0.5215681002987006,2.9220872789237373,1.55317745457907,21520,10.976515136323162,serve,serves_watch-right
2410,1761597285135850752,28.36685061454773,-6.4481940269470215,9.170171737670898,-0.550229012966156,0.1140688061714172,-0.5497338771820068,0.827515184879303,-0.0626466646790504,0.6541954874992371,1.1103512048721311,-0.1564316763993777,-0.6629348595581578,0.688676232471888,0.2485390201247838,0.5820455974308978,3.004610934400413,1.5737993542080222,21530,11.223814319305315,serve,serves_watch-right
2420,1761597285145896448,28.376896381378177,-7.077511787414551,9.041128158569336,-0.6955488920211792,0.0435912273824214,-0.6042224168777466,0.7956222891807556,-0.0153319686651229,0.6598103046417236,1.275651454925537,-0.2093412354168349,-0.6704248673244122,0.6695831774065525,0.2415885664489224,0.6487896464771193,3.0868585309336516,1.5904622146809455,21540,11.50291092471202,serve,serves_watch-right
2430,1761597285155942400,28.386942386627197,-6.304935932159424,9.57577896118164,-0.5604400634765625,-0.0247359350323677,-0.6568998694419861,0.7535719871520996,0.0476393774151802,0.6048216223716736,1.496992588043213,-0.2624989205532012,-0.6763475898125294,0.6475646222962479,0.2330414856103746,0.7166996558046921,-3.108779523699754,1.6019810667359204,21550,11.47875659149516,serve,serves_watch-right
2440,1761597285165987584,28.396987438201904,-5.5849528312683105,9.358165740966797,-0.5868145823478699,-0.0909043326973915,-0.7010536193847656,0.7072908282279968,0.0850907415151596,0.5299872756004333,1.5888822078704834,-0.312782329726945,-0.6807201628422004,0.6247123111646885,0.2202767238145902,0.776873955671078,-3.0137687197572514,1.604182508448225,21560,10.913813060381447,serve,serves_watch-right
2450,1761597285176033536,28.407033443450928,-5.161489963531494,8.739337921142578,-0.7236248850822449,-0.1481474786996841,-0.7383221387863159,0.6579762697219849,-0.0137177407741546,0.6144207715988159,1.4830912351608276,-0.3582836990705225,-0.6839743392455927,0.6009719062324671,0.2065058386547897,0.8305791886233078,-2.920129467225053,1.6018357398881466,21570,10.17549207251754,serve,serves_watch-right
2460,1761597285186079488,28.41707944869995,-5.697809219360352,8.485203742980957,-1.1755030155181885,-0.1954765170812606,-0.774031937122345,0.6022151112556458,0.0614280700683593,0.5956568121910095,1.67921781539917,-0.4013770723695633,-0.6854950173935137,0.5755033886761328,0.1943932509359107,0.8851846576872014,-2.827726358888542,1.595096907283834,21580,10.28812518390101,serve,serves_watch-right
2470,1761597285196125440,28.427125453948975,-6.6060872077941895,8.565165519714355,-1.614142656326294,-0.232871800661087,-0.8122002482414246,0.5348842740058899,0.1100233346223831,0.1508386731147766,1.8687716722488403,-0.4453420149391617,-0.685041728726257,0.5460402643952716,0.1850088292207846,0.94791386736603,-2.730972611352035,1.582831467936904,21590,10.93653990492687,serve,serves_watch-right
2480,1761597285206171392,28.437171459198,-7.513706684112549,8.789599418640137,-1.81045925617218,-0.2616659700870514,-0.8516390323638916,0.4541387856006622,-0.0927041471004486,-0.2507932186126709,2.0812768936157227,-0.4912309820241402,-0.6811619138988992,0.5129208975455378,0.1778279936687403,1.019104602771011,-2.6188715857443796,1.5540223681819476,21600,11.70429873137627,serve,serves_watch-right
2490,1761597285216216576,28.447216510772705,-7.892536163330078,9.071205139160156,-2.1137821674346924,-0.2813083231449127,-0.888713002204895,0.3620151281356811,-0.3228176534175873,-0.4349411725997925,2.2163538932800293,-0.5382086684553309,-0.6742183591809383,0.4758541514643621,0.1712422556882809,1.094530301912736,-2.4809954423639615,1.5004790399794807,21610,12.208479218050199,serve,serves_watch-right
2500,1761597285226262528,28.45726251602173,-7.793557643890381,9.287277221679688,-2.655428409576416,-0.28863325715065,-0.9202802777290344,0.2641496062278747,-0.4743824303150177,-0.4672013521194458,2.2908430099487305,-0.5837815899425749,-0.6654972498150793,0.4349577101295846,0.1646944007597882,1.1687962458616512,-2.311931765108887,1.4168940619089627,21620,12.41146079151677,serve,serves_watch-right
2510,1761597285236308480,28.467308521270752,-7.405845165252685,9.455171585083008,-3.3524746894836426,-0.2807613313198089,-0.9453312158584596,0.1658972799777984,-0.5827335119247437,-0.4920161366462707,2.198741912841797,-0.6261833164324193,-0.6565217621519549,0.3897791892570648,0.1579423075643866,1.2386087083159687,-2.104485671183805,1.2973502908617955,21630,12.469398496266216,serve,serves_watch-right
2520,1761597285246354688,28.477354526519775,-6.940223217010498,9.676326751708984,-4.087375640869141,-0.2564399540424347,-0.9639379978179932,0.0711478516459465,-0.7202750444412231,-0.5170952677726746,2.03091812133789,-0.6644512705989859,-0.6477430770428168,0.3405918859459833,0.151428450117232,1.301423613972132,-1.8414337325702184,1.12396260706997,21640,12.589862482860601,serve,serves_watch-right
2530,1761597285256400640,28.4874005317688,-6.326675891876221,9.959921836853027,-4.835247993469238,-0.2156508564949035,-0.9763249158859252,-0.0168716274201869,-0.9747788310050964,-0.6075528264045715,1.89185631275177,-0.698165382014326,-0.6395935463676709,0.2872007683661259,0.1449173521247359,1.3527636791651725,-1.4927195177653998,0.8678458059890554,21650,12.75172513801242,serve,serves_watch-right
2540,1761597285266446592,28.497446537017822,-5.877708911895752,10.209283828735352,-5.724000930786133,-0.158011108636856,-0.982765257358551,-0.0959430113434791,-1.3074430227279663,-0.762870728969574,1.755259990692139,-0.7270615954991749,-0.631920677945404,0.2295751514310312,0.1391151191305548,1.3848690664217758,-1.0251056864113877,0.4952615429211914,21660,13.097370919550855,serve,serves_watch-right
2550,1761597285276491520,28.50749158859253,-5.214431285858154,10.55626392364502,-6.778044700622559,-0.0827247723937034,-0.9830626845359802,-0.1635379642248153,-1.7353293895721436,-0.7571108341217041,1.7069950103759766,-0.7507159215759752,-0.6246826999553051,0.1673396100752464,0.1348878753617309,1.3864848359400177,-0.4683122601504097,0.0357109378087794,21670,13.585539798779555,serve,serves_watch-right
2560,1761597285286537728,28.517537593841553,-4.686724662780762,10.765074729919434,-7.961787700653076,0.0101952496916055,-0.9763189554214478,-0.2160953879356384,-2.1691155433654785,-0.8472893238067627,1.7672276496887207,-0.768419984160781,-0.6180229083947308,0.099999937739065,0.1325833948201379,1.3527362866872756,0.0471444335831317,-0.3795599983569983,21680,14.185989052432616,serve,serves_watch-right
2570,1761597285296583680,28.527583599090576,-3.5357065200805664,10.742789268493652,-9.436761856079102,0.1201524809002876,-0.9607290625572203,-0.2501264810562134,-2.5404863357543945,-1.007532835006714,1.8588911294937136,-0.779097363825281,-0.6116605710300097,0.0284272586125174,0.1344272421917376,1.289617779873251,0.4478181418400997,-0.6809518719045592,21690,14.729603395602751,serve,serves_watch-right
2580,1761597285306629632,28.5376296043396,-0.6309777498245239,10.519383430480955,-11.03972625732422,0.2448780685663223,-0.9364111423492432,-0.2513343095779419,-2.9364521503448486,-0.8787133693695068,1.8383551836013792,-0.7782337803479648,-0.6100643838873601,-0.0464142902374746,0.1414897689697293,1.2122591271286378,0.7723878405381062,-0.9091412638241756,21700,15.26208100210796,serve,serves_watch-right
2590,1761597285316675584,28.547675609588623,2.103668212890625,9.406500816345217,-12.701902389526367,0.3779802024364471,-0.901067316532135,-0.212623044848442,-3.367985725402832,-0.6887000799179077,1.816077709197998,-0.7625729580350801,-0.615728660819936,-0.1206925488613523,0.1574609667212003,1.1222243424322231,1.0583884119918032,-1.1117289827664314,21710,15.94509334782601,serve,serves_watch-right
2600,1761597285326720512,28.55772042274475,3.927253007888794,7.483948230743408,-14.921234130859377,0.5144718885421753,-0.844652533531189,-0.1479219943284988,-3.6970736980438232,-0.124585747718811,1.9370760917663576,-0.7345828914571711,-0.62357620354149,-0.1928515495673974,0.1853349790354755,1.00591576871315,1.2908261527385936,-1.2797575023317338,21720,17.14864499884296,serve,serves_watch-right
2610,1761597285336766464,28.567766427993774,6.013783931732178,5.656483173370361,-17.320518493652344,0.6519977450370789,-0.7550002336502075,-0.0698122680187225,-3.7993977069854736,0.3529311418533325,2.1566805839538574,-0.6946372280596491,-0.629717416673465,-0.2618202490883456,0.2288785205829235,0.8556545145140303,1.4641283423290683,-1.4143910031279725,21730,19.18754179036843,serve,serves_watch-right
2620,1761597285346812416,28.5778124332428,7.857192039489746,3.1689257621765137,-18.94235038757324,0.7796781659126282,-0.6260952353477478,0.0103517062962055,-3.935805797576904,0.1794092655181884,2.3416686058044434,-0.6426833588582886,-0.6318913590592413,-0.3254061516086323,0.2859763290292462,0.6765353123558139,1.58407244302068,-1.5222208291227313,21740,20.75066734920116,serve,serves_watch-right
2630,1761597285356858368,28.58785843849182,10.666441917419434,-0.0872685834765434,-20.329574584960938,0.8865814805030823,-0.4566731750965118,0.0736423805356025,-4.251434326171875,0.474770039319992,2.24796724319458,-0.5789864368161594,-0.6277737531180194,-0.3777847319070196,0.3577060946157295,0.4742520521937085,1.6536693762746015,-1.62039551669389,21750,22.958053092299313,serve,serves_watch-right
2640,1761597285366904576,28.597904443740845,13.25851058959961,-4.669456481933594,-20.75579071044922,0.962552845478058,-0.2540436685085296,0.0946265384554863,-4.5702643394470215,1.4187623262405396,1.9961785078048704,-0.5046552258317417,-0.6146900377977516,-0.41166664482617,0.4449831172352949,0.256858801621332,1.6687893444811044,-1.7283002740020723,21760,25.067803551710842,serve,serves_watch-right
2650,1761597285376949504,28.60794949531555,15.368943214416504,-9.64068603515625,-20.294109344482425,0.9981693625450134,-0.0403441861271858,0.0450562611222267,-4.696411609649658,1.7507323026657104,1.4172087907791138,-0.4253554563945053,-0.5871789365431848,-0.4216029252586891,0.5445590111369494,0.0403551373491024,1.6159045998505317,-1.8575892307329067,21770,27.221280587845694,serve,serves_watch-right
2660,1761597285386995456,28.617995500564575,16.03763198852539,-14.707971572875977,-18.009756088256836,0.9848942756652832,0.1502237319946289,-0.086118035018444,-4.868515491485596,1.975935935974121,1.1468632221221924,-0.3478169940330313,-0.5410225735745577,-0.4052598657135202,0.6496787275444799,-0.1507945742691424,1.4835792878809313,-2.0202865571292197,21780,28.24679418883504,serve,serves_watch-right
2670,1761597285397041664,28.6280415058136,15.871384620666504,-17.05219841003418,-14.077818870544434,0.9203599095344543,0.2767597138881683,-0.2763002812862396,-5.7442121505737305,2.2574048042297363,0.5609835386276245,-0.2818214062999387,-0.4779079689050833,-0.3653133408369092,0.7474803637241161,-0.2804204563709702,1.2791478478871507,-2.2112859239542453,21790,27.21880424530362,serve,serves_watch-right
2680,1761597285407087616,28.638087511062626,17.788333892822266,-15.35430145263672,-9.602605819702148,0.8232292532920837,0.3169743418693542,-0.470978707075119,-7.4239983558654785,2.8265955448150635,-0.054793357849121,-0.2248589992807751,-0.4147122952486036,-0.304178157807718,0.8276036955416288,-0.3225376280410361,1.0511357233189005,-2.4228568152524255,21800,25.384826852069505,serve,serves_watch-right
2690,1761597285417133568,28.64813351631165,16.593368530273438,-13.44236183166504,-4.747998237609863,0.720748245716095,0.2760224342346191,-0.6358724236488342,-9.282362937927246,2.991067409515381,-0.5908122062683105,-0.1798695933742478,-0.3601586543484816,-0.2288002234955648,0.8863313505077187,-0.2796533069891181,0.8478808738114997,-2.6142882869960196,21810,21.87648184830505,serve,serves_watch-right
2700,1761597285427178496,28.658178567886353,14.935251235961914,-9.503433227539062,-0.8929147124290466,0.6332306265830994,0.1854599118232727,-0.75141441822052,-8.806234359741211,3.3825485706329346,-1.272297739982605,-0.1519037905409842,-0.3177666330240987,-0.1526996042283543,0.9233810157130856,-0.1865398804695474,0.7002514332993833,-2.747206353689178,21820,17.72496175666587,serve,serves_watch-right
2710,1761597285437224704,28.668224573135376,13.43796730041504,-8.255938529968262,2.4845330715179443,0.5681334733963013,0.0668557733297348,-0.8202162384986877,-6.429965019226074,2.976570844650269,-2.3925371170043945,-0.1408958538445351,-0.2893247349037052,-0.0786326119895039,0.9435340103875718,-0.066905680944755,0.6057848488499824,-2.8242120782680145,21830,15.96597603534168,serve,serves_watch-right
2720,1761597285447270656,28.6782705783844,10.749576568603516,-8.190244674682617,3.690053939819336,0.4950138032436371,-0.0521376393735408,-0.8673194646835327,-4.98091459274292,3.1343367099761963,-4.05872106552124,-0.1420768842410417,-0.2573320006578797,-0.0109777849811854,0.955758343128033,0.0521612887568331,0.5186267823954015,-2.8602875247723265,21840,14.0089258087197,serve,serves_watch-right
2730,1761597285457316608,28.688316583633423,10.750795364379885,-6.92160177230835,5.150359153747559,0.4244497716426849,-0.1639909148216247,-0.8904770612716675,-2.5692708492279053,3.190159797668457,-3.6270246505737305,-0.151228372003334,-0.2287474101085112,0.0493568847590187,0.9604001593287128,0.164734992369067,0.4447972906936245,-2.866562833804396,21850,13.784570050378264,serve,serves_watch-right
2740,1761597285467362560,28.698362588882446,17.835426330566406,-9.831777572631836,8.710657119750977,0.3337046504020691,-0.3136996030807495,-0.8889509439468384,0.1479695439338684,3.3453922271728516,1.3306318521499634,-0.1661633769091737,-0.1967535752834608,0.1296632644102959,0.9575307797008504,0.3190868237234033,0.3591138701034354,-2.856346365715156,21860,22.150436340818125,serve,serves_watch-right
2750,1761597285477407488,28.708407402038578,24.172422409057617,-9.049077033996582,8.530171394348145,0.213968813419342,-0.5264946818351746,-0.8228126764297485,1.5207114219665527,5.360494136810303,1.9671913385391235,-0.1830752861172704,-0.1628625231236701,0.2491374047742831,0.9369577890841808,0.5544722241979193,0.2544107621729434,-2.8284254955478225,21870,27.1837382327389,serve,serves_watch-right
2760,1761597285487453440,28.7184534072876,19.313295364379883,-6.134073257446289,8.621771812438965,0.1026732251048088,-0.7081098556518555,-0.6985976099967957,0.989169418811798,5.3032026290893555,1.9683730602264404,-0.1936971997997897,-0.1352093517337028,0.3638950659800491,0.90098847216707,0.7868177457732577,0.1459257771672786,-2.778727770370639,21880,22.021925023604595,serve,serves_watch-right
2770,1761597285497499392,28.72849941253662,14.817259788513184,-3.2948460578918457,12.038294792175291,-0.0079583916813135,-0.8212267756462097,-0.5705464482307434,-3.3699560165405273,4.233961582183838,2.7394611835479736,-0.222582119093125,-0.1120400534530548,0.4496374116964071,0.8577472901378602,0.963557658267456,-0.013947813180821,-2.626507502822921,21890,19.37337708528923,serve,serves_watch-right
2780,1761597285507545344,28.738545417785645,12.34087085723877,-1.4424282312393188,11.59648609161377,-0.1227577403187751,-0.8836329579353333,-0.4518001079559326,-4.641081809997559,1.404155969619751,2.3000056743621826,-0.2604916939409043,-0.0899559522267823,0.5157595060104189,0.8111991971062118,1.0835659967356863,-0.2653031705737333,-2.359883314145969,21900,16.99576954392807,serve,serves_watch-right
2790,1761597285517591552,28.748591423034668,9.797269821166992,0.1804566383361816,11.584750175476074,-0.229702278971672,-0.907375156879425,-0.3520043790340423,-4.236056804656982,-0.4015542268753052,0.5996545553207397,-0.3021916288556634,-0.07289949311021,0.5645205666947087,0.7646452348948234,1.1369965030043347,-0.5781693694540263,-2.0133270829955694,21910,15.173183488485929,serve,serves_watch-right
2800,1761597285527636480,28.758636474609375,8.167292594909668,1.5145940780639648,10.873937606811523,-0.3290003538131714,-0.90434330701828,-0.2718859016895294,-4.145410537719727,0.4707953333854675,-0.0335492491722106,-0.3435608451644007,-0.0581254318025005,0.6005651309680196,0.7196588870295346,1.129838594675411,-0.8801638000376005,-1.6707150347642097,21920,13.683609999886823,serve,serves_watch-right
2810,1761597285537682432,28.7686824798584,4.541598320007324,3.5490567684173584,11.304301261901855,-0.4229972660541534,-0.8778473138809204,-0.2246273607015609,-4.10349178314209,0.3971801996231079,-0.2765475511550903,-0.3901753979300096,-0.0454013522256676,0.6209871467611455,0.6782896698634117,1.0713488358384016,-1.0826282197326853,-1.412023483732788,21930,12.688937948685,serve,serves_watch-right
2820,1761597285547728640,28.778728485107425,2.9897942543029785,3.895514726638794,10.609233856201172,-0.5090739727020264,-0.8344475030899048,-0.2110477536916732,-4.11804723739624,-1.3993018865585327,-0.7332882285118103,-0.438247069661213,-0.0316700199270308,0.6272743682943547,0.6430112195150725,0.9871294595766776,-1.177791426551188,-1.2551642153790985,21940,11.690583718706607,serve,serves_watch-right
2830,1761597285557774592,28.788774490356445,2.0402400493621826,4.185013771057129,9.921866416931152,-0.584031343460083,-0.7834434509277344,-0.2124238014221191,-3.9327685832977295,-1.0921516418457031,-0.8155608177185059,-0.4833445118507609,-0.0182934645493621,0.6272586749321342,0.6104015699625955,0.9001875057306261,-1.2219515737101672,-1.149487576882006,21950,10.959943107442914,serve,serves_watch-right
2840,1761597285567820544,28.79882049560547,0.6085058450698853,4.660319805145264,9.22841453552246,-0.6470563411712646,-0.7269080877304077,-0.2300493866205215,-3.628151178359986,-0.8015190362930298,-1.0716779232025146,-0.5263598777374916,-0.0052419465461746,0.6204416403469093,0.581351866897427,0.813808853095815,-1.229201541309309,-1.079459217888369,21960,10.356278042286988,serve,serves_watch-right
2850,1761597285577866496,28.808866500854492,-0.2225924432277679,4.629519462585449,8.134570121765137,-0.6965031027793884,-0.6686720848083496,-0.2603097259998321,-3.505034923553467,-1.2891221046447754,-0.9845480918884276,-0.5659129486698786,0.0073967157872138,0.6081039624419513,0.5566843291592395,0.7324214736289003,-1.213132464393953,-1.0342329130987091,21970,9.362330314411773,serve,serves_watch-right
2860,1761597285587911680,28.8189115524292,-1.382305145263672,4.925201892852783,7.4834675788879395,-0.7332437634468079,-0.6105678677558899,-0.2992666661739349,-3.367830276489258,-1.0731632709503174,-1.0030251741409302,-0.6020278180002163,0.0195274389125788,0.5915955957405492,0.5359066126028895,0.6567774212723133,-1.1832918272942008,-1.0045766315218885,21980,9.064803814989599,serve,serves_watch-right
2870,1761597285597957632,28.828957557678223,-2.670429229736328,5.232253551483154,6.703540325164795,-0.758128821849823,-0.5505603551864624,-0.3494626581668854,-3.1236460208892822,-1.2900768518447876,-1.086938738822937,-0.6358933136554988,0.0326858070517455,0.5693859086321497,0.5199722296861182,0.5830353300956023,-1.1388703267183833,-0.9913215908127953,21990,8.9131993352078,serve,serves_watch-right
2880,1761597285608003584,28.83900356292725,-3.30397367477417,5.345188140869141,6.089003562927246,-0.7714042067527771,-0.489972710609436,-0.4060323238372803,-3.002246856689453,-1.392504096031189,-1.0688517093658447,-0.6668125360943368,0.0465075264729912,0.5429741090242018,0.5083081279131113,0.5120584386283236,-1.0862878151447857,-0.9891680806656196,22000,8.750042439567338,serve,serves_watch-right
2890,1761597285618049536,28.84904956817627,-3.171910524368286,5.417269229888916,5.648967266082764,-0.774940013885498,-0.4301400780677795,-0.4630848169326782,-2.825340747833252,-1.2615103721618652,-1.0758556127548218,-0.6951226767058528,0.0595909942601107,0.5146906924277187,0.4983441481096121,0.4446479465582917,-1.0321617802731982,-0.9888500193109624,22010,8.445037208738285,serve,serves_watch-right
2900,1761597285628095744,28.859095573425293,-2.6557905673980713,5.393108367919922,5.3251237869262695,-0.7704159021377563,-0.3730672895908355,-0.5169916152954102,-2.6229100227355957,-1.2509256601333618,-1.0514593124389648,-0.7215138500683312,0.0702758508523615,0.4863800061315628,0.4877639687960906,0.3823127933219731,-0.9797616513045884,-0.9832574314640372,22020,8.030926767945056,serve,serves_watch-right
2910,1761597285638140416,28.86914038658142,-2.036738157272339,5.313117027282715,4.803195476531982,-0.7589212656021118,-0.3214470446109772,-0.5663129687309265,-2.5661215782165527,-1.1648658514022827,-1.0494248867034912,-0.7455178095305078,0.0780344087727428,0.4590796761398259,0.4768226028034438,0.3272572436364902,-0.9297266651250188,-0.972808774834478,22030,7.446354923898533,serve,serves_watch-right
2920,1761597285648186368,28.879186391830444,-1.81961727142334,5.380425930023193,4.497400283813477,-0.7412015795707703,-0.2751880884170532,-0.6122839450836182,-2.54825758934021,-0.9247936010360718,-1.1041619777679443,-0.7677226762309951,0.0829902307962572,0.4324010183308249,0.4655574700722561,0.2787853345293716,-0.8803602896779452,-0.9582706532093634,22040,7.244763592814717,serve,serves_watch-right
2930,1761597285658232576,28.889232397079468,-1.8452235460281372,5.459731101989746,4.06373929977417,-0.7175598740577698,-0.2319918125867843,-0.6567249298095703,-2.47503662109375,-0.8658322691917419,-1.0966167449951172,-0.7882139166497293,0.0867222707211299,0.4051132905592089,0.4550618541851444,0.2341248586897154,-0.8296358883458325,-0.9436885662536778,22050,7.051772169985349,serve,serves_watch-right
2940,1761597285668278528,28.89927840232849,-1.967723727226257,5.56358003616333,3.540151834487915,-0.6880844235420227,-0.1922571659088134,-0.6996977925300598,-2.325282335281372,-0.8013646602630615,-1.196420431137085,-0.8068057708185719,0.0892919858293841,0.3770650398147784,0.4459969961316696,0.1934617108331809,-0.7770300579641457,-0.930576854728346,22060,6.881717408954868,serve,serves_watch-right
2950,1761597285678324480,28.909324407577515,-2.1739017963409424,5.776265621185303,3.3258719444274902,-0.652930736541748,-0.1541859209537506,-0.7415578961372375,-2.116814136505127,-0.864002525806427,-1.2312510013580322,-0.8236843621423567,0.0914927222361883,0.3476350658756806,0.4385463406455115,0.1548034705295911,-0.7219282212059597,-0.919953263740406,22070,7.010885659982732,serve,serves_watch-right
2960,1761597285688369408,28.91936945915222,-2.234956741333008,5.847186088562012,3.2372629642486572,-0.6126331090927124,-0.1163168996572494,-0.7817615270614624,-1.946921944618225,-1.1345070600509644,-1.091086983680725,-0.8396478494556817,0.0934236796382272,0.3168457957256564,0.4311291019908087,0.116580800529367,-0.6646961368476122,-0.9084436342611149,22080,7.0473036183776685,serve,serves_watch-right
2970,1761597285698415616,28.929415464401245,-2.1217844486236572,5.752173900604248,3.0461249351501465,-0.5676417946815491,-0.0798516720533371,-0.8193939924240112,-1.8966374397277832,-1.2470221519470217,-0.9612761735916138,-0.8543378009637247,0.094799992552666,0.2851595339853608,0.4240330056148942,0.0799367782020828,-0.6058490396782262,-0.8964180321261485,22090,6.8460463736201325,serve,serves_watch-right
