t_rel_ms,time,seconds_elapsed,rotationRateX,rotationRateY,rotationRateZ,gravityX,gravityY,gravityZ,accelerationX,accelerationY,accelerationZ,quaternionW,quaternionX,quaternionY,quaternionZ,pitch,roll,yaw,timestamp,omega_mag,label,session_id
0,1761597287948685824,31.179685831069943,0.1223634555935859,0.4466470777988434,0.2673775851726532,0.0152084622532129,0.7202562689781189,-0.6935413479804993,-0.0429641902446746,0.0130047798156738,-0.0002147555351257,0.0098291865287957,-0.0124435020319243,-0.3912473620823966,0.9201488882170056,-0.8041716678917775,0.0219251903071114,3.129553210087596,24330,0.5347496614527296,serve,serves_watch-right
10,1761597287958731776,31.18973183631897,0.1264254301786422,0.4522904455661773,0.2515141069889068,0.02012007124722,0.7194133400917053,-0.6942907571792603,-0.0460142493247985,0.0169147849082946,0.0133367776870727,0.0097123384434116,-0.0150533587134981,-0.3906763468825563,0.9203538362370453,-0.8029573489543945,0.0289712067355798,3.1327878355273437,24340,0.5327376301339461,serve,serves_watch-right
20,1761597287968777984,31.199777841567993,0.1399495005607605,0.4386257529258728,0.2415523082017898,0.0249223783612251,0.718510627746582,-0.6950692534446716,-0.0573625490069389,0.0154675841331481,0.0219430923461914,0.0096808015209258,-0.0176384791683374,-0.3900695539103437,0.920565464044858,-0.8016585534606563,0.0358406090473067,3.135750687541497,24350,0.5199287753477466,serve,serves_watch-right
30,1761597287978823936,31.209823846817017,0.1663374304771423,0.4135241210460663,0.2354647815227508,0.0295198038220405,0.7174525260925293,-0.6959816217422485,-0.0697572380304336,0.0055241584777832,0.0293861627578735,0.0096130905154592,-0.0200940763683273,-0.3893653910106355,0.9208139984577745,-0.8001384419570535,0.0423892232518857,3.138641401909073,24360,0.504097215626328,serve,serves_watch-right
40,1761597287988869888,31.21986985206604,0.1733881533145904,0.4034523367881775,0.2130702584981918,0.0338913388550281,0.7162413001060486,-0.6970292329788208,-0.0741745382547378,-0.006234586238861,0.0350266695022583,0.0095291615488603,-0.0224170958918685,-0.3885651237684838,0.9210992327713275,-0.7984012389448064,0.0485842887427615,3.1414012041442394,24370,0.48809443228351945,serve,serves_watch-right
50,1761597287998915840,31.229915857315063,0.1542087346315384,0.3877342343330383,0.1916027665138244,0.0380343869328498,0.7150756120681763,-0.6980116367340088,-0.0799350291490554,-0.0223113298416137,0.0518019199371337,0.0094576838988878,-0.0246208982095369,-0.3877988915347994,0.9213665948889864,-0.7967322502325095,0.0544357834383158,-3.1392066520432653,24380,0.4591620524893567,serve,serves_watch-right
60,1761597288008960768,31.23996067047119,0.1339058578014373,0.373898297548294,0.1792385131120681,0.0419699549674987,0.7140366435050964,-0.6988492012023926,-0.0864188149571418,-0.0343338847160339,0.065197467803955,0.0095587853099528,-0.0267855020074543,-0.387114889429069,0.9215928124798272,-0.7952471708810983,0.059983766644121,-3.137136875746812,24390,0.43572601511233683,serve,serves_watch-right
70,1761597288019006720,31.250006675720215,0.1171449273824691,0.3634819388389587,0.1452050954103469,0.0456730909645557,0.7131292223930359,-0.6995431780815125,-0.0910374745726585,-0.0415746569633483,0.0785409808158874,0.0097547887974936,-0.028864768196775,-0.3865167868385816,0.921778953275063,-0.7939518619329996,0.0651973460725972,-3.135416129937641,24400,0.40856648615213215,serve,serves_watch-right
80,1761597288029052672,31.26005268096924,0.105322889983654,0.3280358016490936,0.1072747558355331,0.0489296875894069,0.7123265862464905,-0.7001405358314514,-0.0969491004943847,-0.0351873040199279,0.0914216637611389,0.0100095669275789,-0.0307270048575815,-0.3859865155608717,0.9219382452218544,-0.7928076049645169,0.0697720813702322,-3.1340923670820895,24410,0.36084383264460207,serve,serves_watch-right
90,1761597288039098624,31.27009868621826,0.0831027626991272,0.3029802739620209,0.0853319019079208,0.0517720654606819,0.7116326093673706,-0.7006415724754333,-0.0984944701194763,-0.0442590117454528,0.0918006896972656,0.0103111178009991,-0.03238497703342,-0.385526171031804,0.9220707139258704,-0.7918193458828954,0.0737583229752287,-3.133115804264922,24420,0.3255528360520788,serve,serves_watch-right
100,1761597288049144832,31.280144691467285,0.0694149211049079,0.280960738658905,0.0636913180351257,0.0543331354856491,0.7110788822174072,-0.7010098099708557,-0.0938991904258728,-0.0663797855377197,0.0953884720802307,0.0105253029066071,-0.0338555401261553,-0.3851608654943253,0.9221682250652854,-0.7910314889036333,0.0773523095711179,-3.132109734997806,24430,0.29633418961167746,serve,serves_watch-right
110,1761597288059190784,31.29019069671631,0.0695904567837715,0.2549898326396942,0.0212463960051536,0.0564823113381862,0.7106050252914429,-0.7013204097747803,-0.0994358137249946,-0.0727418661117553,0.1070516109466552,0.0107793574434322,-0.0351201574606536,-0.3848459100578602,0.922249469024473,-0.7903577361554137,0.080363645447685,-3.131431488739799,24440,0.26516797651338114,serve,serves_watch-right
120,1761597288069236736,31.300236701965332,0.0940356105566024,0.2108774930238723,-0.0222310423851013,0.0580876395106315,0.710049569606781,-0.7017516493797302,-0.1125004738569259,-0.0705080032348632,0.1132049560546875,0.011255211581769,-0.0361800816567209,-0.3844673875856418,0.9223606116144734,-0.7895686156350419,0.0825869320637014,-3.1315699342770182,24450,0.23196170451674664,serve,serves_watch-right
130,1761597288079281920,31.31028175354004,0.1240094602108001,0.163113459944725,-0.0546527206897735,0.0590882673859596,0.7093167304992676,-0.7024089694023132,-0.1217256039381027,-0.08408784866333,0.111344575881958,0.0118403459234504,-0.036953128914713,-0.3839661031533848,0.9225314860234672,-0.7885283861763445,0.0839247154580789,-3.1323268003012896,24460,0.21206429901260565,serve,serves_watch-right
140,1761597288089327872,31.320327758789062,0.1257650107145309,0.1284886449575424,-0.0869366228580474,0.0595988295972347,0.708500862121582,-0.7031887769699097,-0.1253184378147125,-0.1173754334449768,0.1024960875511169,0.0125274762918024,-0.0374999972671045,-0.3834049502269613,0.9227336803549347,-0.7873716686449418,0.0845530149603252,-3.1336058299594933,24470,0.1997101554679026,serve,serves_watch-right
150,1761597288099373824,31.33037376403809,0.2056968659162521,0.0786326751112937,-0.1117507144808769,0.0595936328172683,0.707443118095398,-0.7042533755302429,-0.131416767835617,-0.1345671415328979,0.1013329029083252,0.013352222705029,-0.0378180176127717,-0.3826788429917747,0.9230105627986708,-0.7858739565039615,0.084418479882427,-3.135514510875274,24480,0.24694639181391845,serve,serves_watch-right
160,1761597288109419776,31.34041976928711,0.2573392689228058,0.0029597461689263,-0.1215538084506988,0.0590645782649517,0.7058442234992981,-0.7059003710746765,-0.1382424384355545,-0.1228059530258178,0.1156293749809265,0.0140991642057992,-0.0378068549213134,-0.3816024988133762,0.9234453778309926,-0.7836142190009441,0.0834782347164443,-3.137619046925245,24490,0.2846183194665758,serve,serves_watch-right
170,1761597288119465728,31.350465774536133,0.2389269471168518,-0.0439752377569675,-0.1910276114940643,0.0577674992382526,0.7041800022125244,-0.7076676487922668,-0.146527886390686,-0.0874197483062744,0.1336320042610168,0.0148843502856427,-0.037392116933314,-0.3804839246828522,0.9239114560347408,-0.7812676288638948,0.0814502371825391,-3.1402538838663636,24500,0.30904927753917805,serve,serves_watch-right
180,1761597288129511936,31.360511779785156,0.210944578051567,-0.0500570982694625,-0.252323716878891,0.055796779692173,0.7027199268341064,-0.7092752456665039,-0.1603652685880661,-0.0729287266731262,0.1415873169898986,0.0160420647504928,-0.0367685345357297,-0.3794870806830231,0.9243269275662446,-0.7792133212971593,0.0785056362784729,3.1391331437651133,24510,0.33267188969928163,serve,serves_watch-right
190,1761597288139557888,31.37055778503418,0.1680732518434524,-0.0577599965035915,-0.2970410287380218,0.0535034164786338,0.7014997005462646,-0.7106584906578064,-0.1614440828561782,-0.1264417767524719,0.1258349418640136,0.0174381707911683,-0.0360715972740639,-0.3786417771317525,0.9246756443435552,-0.7774996693806903,0.0751453331993363,3.134670909760538,24520,0.3461476678168868,serve,serves_watch-right
200,1761597288149602816,31.380602836608887,0.1361850947141647,-0.1137305796146392,-0.3454863429069519,0.0505956374108791,0.7006043791770935,-0.7117538452148438,-0.1689580678939819,-0.1514558792114257,0.113655149936676,0.0190099722698794,-0.035119794974504,-0.3780075023870747,0.9249407708931312,-0.7762441128356112,0.0709664864175257,3.129518772060774,24530,0.3883836220761732,serve,serves_watch-right
210,1761597288159648768,31.39064884185791,0.0757777765393257,-0.1335097104310989,-0.3959350287914276,0.0470775328576564,0.7000072002410889,-0.7125824093818665,-0.1818431764841079,-0.1404979228973388,0.0945862531661987,0.0207209056068025,-0.0339005706939374,-0.3775705727490407,0.9251280827225876,-0.775407552310076,0.0659702162030065,3.1237529955460084,24540,0.4246547553256745,serve,serves_watch-right
220,1761597288169694976,31.400694847106937,-0.0050203981809318,-0.143642246723175,-0.4612253606319427,0.0430639237165451,0.6999503374099731,-0.7128919959068298,-0.1810186356306076,-0.1569663286209106,0.0897383093833923,0.022457830589305,-0.0324368775940841,-0.3774941721520381,0.925171130941237,-0.7753279668835555,0.0603340461624703,3.11769593416805,24550,0.48310157599788695,serve,serves_watch-right
230,1761597288179740928,31.410740852355957,-0.0778524577617645,-0.1723887324333191,-0.5510318875312805,0.0383370406925678,0.7004978656768799,-0.7126240134239197,-0.1934273689985275,-0.1627476215362548,0.1001362204551696,0.0244909693998951,-0.0307244572603761,-0.3778147687630653,0.9250471126627184,-0.7760948860545543,0.0537452012565279,3.1106283315953487,24560,0.5825933584635167,serve,serves_watch-right
240,1761597288189786880,31.42078685760498,-0.075254812836647,-0.1745219379663467,-0.6293264627456665,0.0329343825578689,0.7012827396392822,-0.7121221423149109,-0.2021085917949676,-0.1557352542877197,0.1037999391555786,0.0268957088124887,-0.0288067538389584,-0.3782976449590831,0.9248447210732632,-0.7771952431854452,0.0462152903933865,3.102370501613934,24570,0.65739865408942,serve,serves_watch-right
250,1761597288199832832,31.430832862854004,-0.0519607439637184,-0.2241831570863723,-0.7015275359153748,0.0267794802784919,0.7019515633583069,-0.7117211222648621,-0.21237213909626,-0.1723647713661193,0.110433280467987,0.0296096656831162,-0.0266084721180718,-0.37872343335496,0.9246534236578944,-0.7781339207484657,0.037608628249912,3.0929893597410807,24580,0.7383081270594097,serve,serves_watch-right
260,1761597288209879040,31.440878868103027,-0.0210030935704708,-0.2178094238042831,-0.7703961133956909,0.0199626497924327,0.7023829817771912,-0.7115193009376526,-0.2258189916610717,-0.1933802366256714,0.107957899570465,0.0325939287222687,-0.0241591505861044,-0.3790206806441111,0.9244984792207016,-0.7787398016931373,0.0280490127025199,3.0826199215003323,24590,0.8008696813918417,serve,serves_watch-right
270,1761597288219923712,31.450923681259155,0.0161416456103324,-0.1954394280910492,-0.8469439744949341,0.0128243677318096,0.7025201320648193,-0.7115482687950134,-0.2335732728242874,-0.2069604396820068,0.1234745979309082,0.0359814423025815,-0.0216951434565946,-0.3791505985708256,0.9243805684319728,-0.7789325257593209,0.0180212350732067,3.0711787291118218,24600,0.8693510330751563,serve,serves_watch-right
280,1761597288229969664,31.46096968650818,0.0643994584679603,-0.2479023784399032,-0.9113247990608216,0.0050337226130068,0.7023029923439026,-0.7118602991104126,-0.2543928623199463,-0.1920949220657348,0.1107708811759948,0.0398326519885448,-0.0190595565770245,-0.3790864950091322,0.9243070099683748,-0.7786274529954812,0.0070711044972817,3.058357668715385,24610,0.9466339149166242,serve,serves_watch-right
290,1761597288240015872,31.4710156917572,0.09471245855093,-0.2722677290439605,-1.0066561698913574,-0.0036186601500958,0.7017571926116943,-0.7124069333076477,-0.2626014351844787,-0.1464745998382568,0.0549210309982299,0.0440092877336315,-0.0160821786579945,-0.3788639362602624,0.9242654403195992,-0.7778610684364881,-0.0050794407642653,3.0443520906264228,24620,1.0471183364185037,serve,serves_watch-right
300,1761597288250061824,31.481061697006226,0.1327021718025207,-0.2411364316940307,-1.1009645462036133,-0.0129046691581606,0.700864315032959,-0.7131778001785278,-0.2524914443492889,-0.1293922066688537,0.0250369906425476,0.0484447969264628,-0.0128568473118728,-0.3784782525240197,0.9242520445892672,-0.7766084667227456,-0.0180926281249838,3.0294568019643573,24630,1.1348478211146038,serve,serves_watch-right
310,1761597288260107776,31.49110770225525,0.1557665914297104,-0.2259184420108795,-1.182406306266785,-0.0226134248077869,0.6995998620986938,-0.7141769528388977,-0.2661134004592895,-0.1599727869033813,0.0195358395576477,0.0532639176608206,-0.0095455745249681,-0.3779158699865021,0.9242573159514252,-0.7748373768411917,-0.031653041302297,3.013545632543398,24640,1.213831556084169,serve,serves_watch-right
320,1761597288270153728,31.501153707504272,0.138925015926361,-0.250457614660263,-1.2689615488052368,-0.0329504571855068,0.6982174515724182,-0.7151269912719727,-0.3075646758079529,-0.1822110414505005,0.0043421387672424,0.0585271528969285,-0.0060706891926962,-0.3773587652363876,0.9241958768755058,-0.7729044431201431,-0.0460438034003932,2.9963676271173605,24650,1.3008814662134418,serve,serves_watch-right
330,1761597288280199680,31.511199712753296,0.1356799006462097,-0.2190564721822738,-1.339011311531067,-0.0438350215554237,0.6967645287513733,-0.7159592509269714,-0.354739785194397,-0.178789734840393,0.0183426737785339,0.0641234960726106,-0.0024320185379847,-0.3768480763487634,0.9240496002697806,-0.7708769291681835,-0.0611492514924124,2.97821005447762,24660,1.3635784047323631,serve,serves_watch-right
340,1761597288290245888,31.52124571800232,0.191281110048294,-0.1727611422538757,-1.4235810041427612,-0.0548861101269722,0.6949260830879211,-0.7169834971427917,-0.3784635066986084,-0.2066753506660461,0.0432316064834594,0.0701860605123025,0.0011266253749525,-0.3761741405778243,0.9238862220541432,-0.7683170760818333,-0.0764024167043479,2.959049675720083,24670,1.4467265638987499,serve,serves_watch-right
350,1761597288300290816,31.531290769577023,0.3134427368640899,-0.1818912923336029,-1.4512542486190796,-0.0662022605538368,0.6922410726547241,-0.7186233997344971,-0.4222163259983063,-0.2233842611312866,0.039363145828247,0.0765605422556584,0.0047484906145834,-0.3750543279943883,0.9238236926353628,-0.7645898348588512,-0.0918644282330694,2.939265184708865,24680,1.4958173971626914,serve,serves_watch-right
360,1761597288310336768,31.54133677482605,0.4236275553703308,-0.2454052716493606,-1.4689470529556274,-0.0778544172644615,0.6885478496551514,-0.7209996581077576,-0.4726674258708954,-0.2057293057441711,0.0027532577514648,0.0828999176749757,0.008629090795865,-0.3733975135485198,0.9239195672375144,-0.7594846872485533,-0.1075644383849217,2.919653915711468,24690,1.5483828652530878,serve,serves_watch-right
370,1761597288320382720,31.551382780075073,0.5369294881820679,-0.2892272174358368,-1.54896879196167,-0.0902444049715995,0.6837464570999146,-0.7241178750991821,-0.5031393766403198,-0.163894772529602,-0.0493959188461303,0.0894052688133707,0.0129164228733527,-0.3711795283661113,0.9241566433341278,-0.7528844775153886,-0.1239874061923204,2.89964333047068,24700,1.664707174567446,serve,serves_watch-right
380,1761597288330428928,31.561428785324097,0.5058535933494568,-0.3520221412181854,-1.5996026992797852,-0.1033356413245201,0.6783801913261414,-0.7274078130722046,-0.5123260021209717,-0.1403552889823913,-0.0510498285293579,0.0960724086914074,0.0175682516596812,-0.3687647651675608,0.9243776992765308,-0.7455557106034068,-0.1411158823981886,2.8792095741617834,24710,1.7142159261177012,serve,serves_watch-right
390,1761597288340474880,31.57147479057312,0.4954359233379364,-0.3831804096698761,-1.6849491596221924,-0.1171967461705207,0.6729174852371216,-0.7303745746612549,-0.5029509663581848,-0.1396533250808715,-0.0405910015106201,0.1030571782765044,0.0225332385462968,-0.3664764055434374,0.9244277139915784,-0.7381457766959487,-0.1591048710794656,2.857893383670581,24720,1.7975921815028069,serve,serves_watch-right
400,1761597288350520832,31.581520795822144,0.4457538723945617,-0.3540672659873962,-1.7331576347351074,-0.1314749270677566,0.6672433614730835,-0.7331443428993225,-0.5101266503334045,-0.1684030294418335,0.0107628107070922,0.1102730716104952,0.0276659597342737,-0.3642285137110166,0.9243441669407984,-0.7305016709837222,-0.1774440891441304,2.8361089392165812,24730,1.824252046850744,serve,serves_watch-right
410,1761597288360566784,31.591566801071167,0.3588290214538574,-0.3946689665317535,-1.7776612043380735,-0.1459348350763321,0.6618692278862,-0.7352769374847412,-0.5353548526763916,-0.1901285052299499,0.0359666347503662,0.1176858357932847,0.0328202047502735,-0.3623318278462916,0.92400683221846,-0.7233095867427558,-0.1959297527732177,2.8139047885216932,24740,1.8559636896204261,serve,serves_watch-right
420,1761597288370611968,31.60161185264587,0.3457153439521789,-0.4378997981548309,-1.8605833053588867,-0.1610973179340362,0.6564916968345642,-0.7369304299354553,-0.5594227313995361,-0.1358312964439392,0.0551829934120178,0.1252966102344846,0.0382914987377216,-0.3606501899928328,0.9234533626945604,-0.7161583931019687,-0.2152201567810688,2.7910683565226053,24750,1.9424328993425268,serve,serves_watch-right
430,1761597288380657920,31.611657857894897,0.4062232971191406,-0.5027375221252441,-1.955459713935852,-0.1771584600210189,0.6504501700401306,-0.7385997176170349,-0.5445212125778198,-0.1088089346885681,0.0258768796920776,0.1332327036846337,0.0441847204797788,-0.3588145194789445,0.9227941359520476,-0.7081769663464551,-0.2354099568966025,2.7674429369924196,24760,2.059510882734311,serve,serves_watch-right
440,1761597288390703872,31.62170386314392,0.4219937324523926,-0.5319936871528625,-2.0092365741729736,-0.193925991654396,0.6436572074890137,-0.7403364777565002,-0.5121592283248901,-0.1053119301795959,-0.0146989226341247,0.1414000171185414,0.0504477809661021,-0.3567727465324867,0.9220489026804144,-0.6992674178802514,-0.2561872092970187,2.7434006696265767,24770,2.120878969765589,serve,serves_watch-right
450,1761597288400749824,31.631749868392944,0.4170673191547394,-0.569206178188324,-2.079808235168457,-0.211155280470848,0.6363658308982849,-0.741924524307251,-0.4994159936904907,-0.1094035506248474,-0.026569128036499,0.1497758716182925,0.0569455381767788,-0.3546758475668039,0.9211565826748486,-0.6897778680960865,-0.2772736199832929,2.719053833211651,24780,2.196256614576086,serve,serves_watch-right
460,1761597288410796032,31.641795873641968,0.4506774544715881,-0.5770068168640137,-2.1747732162475586,-0.2289829105138778,0.6284435987472534,-0.7433878779411316,-0.4970760345458984,-0.1049908399581909,-0.0143025517463684,0.1588187442355503,0.0635913758069618,-0.3525084507933755,0.9200383733388744,-0.6795507016355632,-0.2988038859412475,2.6934030393617343,24790,2.29470816810859,serve,serves_watch-right
470,1761597288420841984,31.65184187889099,0.5140455961227417,-0.6183463931083679,-2.254370927810669,-0.2473128885030746,0.6195361018180847,-0.744990885257721,-0.4834762811660766,-0.0987536311149597,0.0114246606826782,0.1681658386006577,0.0705157097393704,-0.3500458387294157,0.9188121884035716,-0.6681515850359436,-0.3205209554189988,2.66745649971281,24800,2.3934877097911427,serve,serves_watch-right
480,1761597288430887936,31.661887884140015,0.5943106412887573,-0.7174977660179138,-2.3443872928619385,-0.2665621638298034,0.6094546318054199,-0.7466657161712646,-0.4651883244514465,-0.0721163153648376,0.0067517757415771,0.1776678266045668,0.0780255799251329,-0.3472450983831592,0.917478570324474,-0.6553724886611606,-0.3429002118808278,2.641445620649625,24810,2.5227286737820775,serve,serves_watch-right
490,1761597288440933888,31.67193388938904,0.6875303387641907,-0.7368922233581543,-2.426950693130493,-0.2865634858608246,0.5979750156402588,-0.7485367655754089,-0.4359859526157379,-0.0350630283355712,-0.012358009815216,0.1873667750553269,0.0860537236092298,-0.3439860027734034,0.9160579722387828,-0.6409722829691465,-0.3656189491034952,2.615510286838657,24820,2.627888464614415,serve,serves_watch-right
500,1761597288450978816,31.68197870254517,0.8078370690345764,-0.748491108417511,-2.500925064086914,-0.3068217039108276,0.5850351452827454,-0.7507292032241821,-0.4099751710891723,-0.0253427624702453,-0.0173677206039428,0.1974240898731063,0.0943044228885856,-0.3402088604896858,0.9145427182427616,-0.6249233887996437,-0.3879822824180328,2.589612315229475,24830,2.7326664351260628,serve,serves_watch-right
510,1761597288461024768,31.69202470779419,0.9400833249092102,-0.7859762907028198,-2.516256332397461,-0.3272589743137359,0.5703916549682617,-0.7533624172210693,-0.4243737161159515,0.0306214690208435,-0.0507910251617431,0.2075411158082848,0.1028964043111769,-0.3357545400475838,0.9130213839455612,-0.6069826371101754,-0.4098036565522162,2.5645841489271546,24840,2.798760675307848,serve,serves_watch-right
520,1761597288471070720,31.702070713043213,0.9952408671379088,-0.765872597694397,-2.5110013484954834,-0.3474227786064148,0.5544926524162292,-0.7561979293823242,-0.4497268795967102,0.0980494618415832,-0.1118288040161132,0.217602567063236,0.1116051859493151,-0.3308252237596779,0.9114537826682042,-0.5877531886983484,-0.430671210159067,2.540683801812917,24850,2.8075243528181044,serve,serves_watch-right
530,1761597288481116672,31.712116718292236,1.0013482570648191,-0.7239285111427307,-2.50874400138855,-0.3669223487377167,0.5378445982933044,-0.759006679058075,-0.4736843109130859,0.1562318801879882,-0.1500508785247802,0.2276177102880624,0.1201782883065761,-0.325659077584488,0.9097766200047336,-0.567878349780488,-0.4502994021014901,2.517800107196158,24860,2.796527719454094,serve,serves_watch-right
540,1761597288491162880,31.72216272354126,0.9789369702339172,-0.679289698600769,-2.5101261138916016,-0.3856669962406158,0.5207700133323669,-0.7616164088249207,-0.4932697415351867,0.1887941360473632,-0.184596300125122,0.2373191039162011,0.1286330132911796,-0.3203831139479479,0.9080131701338432,-0.5477526984807763,-0.4687382451113719,2.4963580199150446,24870,2.7785761090811314,serve,serves_watch-right
550,1761597288501208832,31.732208728790283,0.9062857627868652,-0.6500190496444702,-2.523834228515625,-0.4037385880947113,0.5035447478294373,-0.7638310790061951,-0.4984220564365387,0.2001600861549377,-0.2170954942703247,0.2470919819444653,0.136844675979131,-0.3152110523655432,0.9060138780015156,-0.5276967382087371,-0.4862419443337807,2.475286887773899,24880,2.759278503840801,serve,serves_watch-right
560,1761597288511254784,31.742254734039307,0.8434042930603027,-0.6221163272857666,-2.541785717010498,-0.4212970435619354,0.4862868785858154,-0.7655285000801086,-0.4909191429615021,0.2108871936798095,-0.2269946932792663,0.257000440861909,0.1448630378892444,-0.3102425806490463,0.9037228468454168,-0.5078353144741694,-0.5031002884436517,2.454269485168747,24890,2.7493697745895607,serve,serves_watch-right
570,1761597288521299712,31.752299785614017,0.8217480182647705,-0.5675582885742188,-2.559819459915161,-0.4381647706031799,0.4688870906829834,-0.766913652420044,-0.4635533988475799,0.2138521373271942,-0.2190940380096435,0.2672766810332693,0.1525355272133151,-0.3054113411452074,0.9011215521436352,-0.4880303671693393,-0.5190757207418977,2.43288750119087,24900,2.7477386855033576,serve,serves_watch-right
580,1761597288531345920,31.762345790863037,0.8629063367843628,-0.5588785409927368,-2.5786595344543457,-0.4544545412063598,0.4508516788482666,-0.7682473063468933,-0.431486040353775,0.227737158536911,-0.2000907659530639,0.2773800551568895,0.1601813341206802,-0.3003636144005578,0.8984342316276218,-0.4677192800091207,-0.5341810348639681,2.412504084805913,24910,2.7760471113216147,serve,serves_watch-right
590,1761597288541391872,31.77239179611206,0.9176201224327089,-0.5789905786514282,-2.5946929454803467,-0.4704527258872986,0.4318961799144745,-0.7695062756538391,-0.4136872887611389,0.2697029411792755,-0.1950933337211609,0.287461699495767,0.1679502355142676,-0.2950247060350496,0.8956109079930382,-0.4465940833891459,-0.5487375693273737,2.392772862045924,24920,2.8124168006513566,serve,serves_watch-right
600,1761597288551437824,31.782437801361084,0.9720593690872192,-0.5705155730247498,-2.6149182319641113,-0.4861048758029938,0.4119666516780853,-0.7707045078277588,-0.3829289078712463,0.3000694513320923,-0.2061325907707214,0.2976977832327354,0.1757796992759109,-0.2893945934242474,0.8925963233683196,-0.4246113183431392,-0.5627076856036786,2.373319033735148,24930,2.84748745316855,serve,serves_watch-right
610,1761597288561483776,31.792483806610107,1.0162993669509888,-0.5694172978401184,-2.626469373703003,-0.5013853311538696,0.3910982608795166,-0.7717868685722351,-0.3422578573226928,0.3030698001384735,-0.2059963345527649,0.3079595210005533,0.1837105011046682,-0.2834731337268367,0.8894124508230745,-0.4018246133949388,-0.5761236466848325,2.354387490550484,24940,2.873228468699342,serve,serves_watch-right
620,1761597288571529984,31.80252981185913,1.06554913520813,-0.5893470644950867,-2.645648717880249,-0.5169610977172852,0.3689448237419128,-0.7724188566207886,-0.327063500881195,0.3191197216510772,-0.2097435593605041,0.318051730530711,0.192223473953789,-0.2772015811585157,0.8860318198406907,-0.3778734987642663,-0.5898066427421961,2.33628152840201,24950,2.9124185929212123,serve,serves_watch-right
630,1761597288581575936,31.81257581710815,1.0987111330032349,-0.6148709058761597,-2.663580894470215,-0.5316612720489502,0.3463000059127807,-0.7729247212409973,-0.3156135082244873,0.3429547250270843,-0.2181031107902526,0.3280014415441888,0.2005869793281251,-0.2707443488726686,0.8825403937524593,-0.3536241884151058,-0.6025293875801734,2.3189966678375895,24960,2.9461662488842975,serve,serves_watch-right
640,1761597288591621888,31.822621822357178,1.086398005485535,-0.6063578724861145,-2.672499418258667,-0.545562207698822,0.3231911659240722,-0.7732459902763367,-0.289917528629303,0.3530631065368652,-0.2254416942596435,0.3378772492992468,0.2088230717359716,-0.2641399531172924,0.8788982588920039,-0.3290996835125219,-0.6144397981355203,2.302296287854352,24970,2.947911741630293,serve,serves_watch-right
650,1761597288601666816,31.832666873931885,1.0700714588165283,-0.5760196447372437,-2.6834397315979004,-0.558646559715271,0.2999452948570251,-0.7732701897621155,-0.2583699822425842,0.3382382690906524,-0.2297052145004272,0.3477464425924755,0.2168519871192679,-0.2575657524822932,0.8750470887052516,-0.3046353233522051,-0.625632590439166,2.2858436239474784,24980,2.945793670849193,serve,serves_watch-right
660,1761597288611713024,31.842712879180908,1.0220999717712402,-0.5789267420768738,-2.688821315765381,-0.5709910988807678,0.2764622271060943,-0.7730056643486023,-0.2453082799911499,0.3378260731697082,-0.2243697643280029,0.3578035320023425,0.2246812623428439,-0.2510288907929876,0.8709071810386476,-0.2801109009208385,-0.6362062123292379,2.2691824786951327,24990,2.934212772295286,serve,serves_watch-right
670,1761597288621758976,31.85275888442993,0.9354292750358582,-0.5380914211273193,-2.664942502975464,-0.5825539231300354,0.2533768713474273,-0.772289514541626,-0.2251242995262146,0.3297835290431976,-0.223224401473999,0.3676514105999234,0.232287496589302,-0.2447402009322345,0.8665893729489523,-0.2561694429917596,-0.6462605866855149,2.2529189606412943,25000,2.8751502309009975,serve,serves_watch-right
680,1761597288631804928,31.862804889678955,0.9327375888824464,-0.5037060379981995,-2.688897132873535,-0.5930891633033752,0.230339303612709,-0.7714850306510925,-0.1765336394309997,0.3214490115642547,-0.2006677389144897,0.3775459941735956,0.2395353832044878,-0.2384959013015493,0.8620914516251029,-0.2324263511639992,-0.6554017033635019,2.2366989576975502,25010,2.890309148448588,serve,serves_watch-right
690,1761597288641850880,31.87285089492798,1.017325520515442,-0.5666629076004028,-2.6936752796173096,-0.6031619310379028,0.206586480140686,-0.7704010009765625,-0.1467159986495971,0.3407615423202514,-0.182373046875,0.3873537472104572,0.2469141239346023,-0.232019203916648,0.8574132837564468,-0.2080848806293413,-0.6642388376758265,2.2209462271826648,25020,2.934611486647517,serve,serves_watch-right
700,1761597288651896832,31.882896900177,1.0894780158996582,-0.631811797618866,-2.701761245727539,-0.6130928993225098,0.1819018274545669,-0.7687840461730957,-0.1039938926696777,0.3605328500270843,-0.1810450553894043,0.39690890465132,0.2546940892223108,-0.2252529744418992,0.8525581836109435,-0.1829202032402669,-0.6732048435480338,2.2060080633471255,25030,2.980882809446601,serve,serves_watch-right
710,1761597288661943040,31.892942905426025,1.1253153085708618,-0.6369006037712097,-2.7251622676849365,-0.6226603388786316,0.156513825058937,-0.7666795253753662,-0.0597737431526184,0.3696549832820892,-0.2199079990386963,0.406349952296464,0.2626915282409457,-0.2182965537144089,0.8474783613671883,-0.1571599887906694,-0.6821069233466182,2.191516052000688,25040,3.0163697233598157,serve,serves_watch-right
720,1761597288671988736,31.90298867225647,1.1415337324142456,-0.5977462530136108,-2.7345330715179443,-0.631399929523468,0.130567267537117,-0.7643862366676331,-0.0464717745780944,0.3718283474445343,-0.2372769117355346,0.4157622866033942,0.2706282703356616,-0.2111094656687359,0.8422202212170429,-0.1309411209703899,-0.6904078778435933,2.1773372822237413,25050,3.0229242406082184,serve,serves_watch-right
730,1761597288682033664,31.913033723831177,1.1447540521621704,-0.5640605688095093,-2.7319202423095703,-0.639083981513977,0.1043851897120475,-0.7620205879211426,-0.0505827665328979,0.3592683970928192,-0.2363467216491699,0.4251127900177383,0.2783344833508244,-0.2037636744189644,0.8368328816572461,-0.1045756918740332,-0.6978796837221357,2.1634574942519182,25060,3.0152967309318326,serve,serves_watch-right
740,1761597288692079872,31.9230797290802,1.1825398206710815,-0.5727208852767944,-2.7392771244049072,-0.6459485292434692,0.0778260976076126,-0.7594034075737,-0.0723894238471984,0.3737730085849762,-0.2395131587982177,0.4345917612599266,0.2859298040546096,-0.1963222806953754,0.8311628419412824,-0.0779048743071569,-0.7048422926235327,2.14937399279913,25070,3.0380995382299516,serve,serves_watch-right
750,1761597288702125824,31.933125734329224,1.207277536392212,-0.525662362575531,-2.753499984741211,-0.65196692943573,0.0507948696613311,-0.7565441131591797,-0.0689039826393127,0.3921982944011688,-0.2538623213768005,0.4438845160894307,0.2935127287325218,-0.1886218999838733,0.8253717645223396,-0.0508167379147454,-0.7112875157085166,2.135857889940082,25080,3.052147135259961,serve,serves_watch-right
760,1761597288712171776,31.943171739578247,1.2030813694000244,-0.4379474520683288,-2.7811670303344727,-0.6566948890686035,0.0234145279973745,-0.7537927627563477,-0.0410894751548767,0.3674546182155609,-0.27637380361557,0.453210386505927,0.3007859954129832,-0.1806416336176345,0.8194489711213644,-0.0234166671376368,-0.7166666529384599,2.122432533488858,25090,3.0617140302108634,serve,serves_watch-right
770,1761597288722217728,31.95321774482727,1.1927971839904783,-0.3700726628303528,-2.815185546875,-0.6600363254547119,-0.0041132699698209,-0.7512223720550537,-0.0389534831047058,0.3336115777492523,-0.2715590000152588,0.4625109192192193,0.3076745636645392,-0.172409948145349,0.813446160196043,0.004113281523667,-0.7208746186857217,2.1091474669805113,25100,3.0797708618083677,serve,serves_watch-right
780,1761597288732263680,31.963263750076297,1.2040674686431885,-0.2955824732780456,-2.8759765625,-0.662062406539917,-0.0320854038000106,-0.7487616539001465,-0.061265230178833,0.343868225812912,-0.2679009437561035,0.4719938178118149,0.3142643774057366,-0.1638813184169743,0.8072191643673611,0.032090912501323,-0.7240224417904995,2.0955358635832035,25110,3.1318347107731115,serve,serves_watch-right
790,1761597288742309888,31.973309755325317,1.1859959363937378,-0.1960518211126327,-2.936262369155884,-0.6625569462776184,-0.0604141876101493,-0.7465711236000061,-0.072016417980194,0.338032603263855,-0.2671007513999939,0.4816050703424394,0.3204546237730269,-0.1549944120407329,0.8008384047641396,0.0604509990643911,-0.7258472473833919,2.0816931511052363,25120,3.172799927229097,serve,serves_watch-right
800,1761597288752355840,31.98335576057434,1.1430716514587402,-0.1090287715196609,-2.984595537185669,-0.6614997982978821,-0.0888672173023223,-0.7446613907814026,-0.0811607241630554,0.3115692436695099,-0.2661111950874328,0.4916417470009349,0.3261365999490051,-0.1459596231104584,0.7941152384805782,0.0889846010615215,-0.7263260710522463,2.066727628905106,25130,3.1978603149569103,serve,serves_watch-right
810,1761597288762400768,31.993400812149048,1.0961437225341797,-0.0247117951512336,-3.0454933643341064,-0.6588901877403259,-0.1172463744878768,-0.7430456876754761,-0.112365186214447,0.3115060329437256,-0.2544518113136291,0.5018328805289288,0.3313267349374307,-0.1367469901926396,0.7872017087416132,0.1175166716762934,-0.7254420482023539,2.051175201799213,25140,3.2368459285968125,serve,serves_watch-right
820,1761597288772446464,32.00344634056091,1.0586460828781128,0.0930167064070701,-3.074833869934082,-0.6546198725700378,-0.1455060839653015,-0.7418226003646851,-0.1321385502815246,0.3070356249809265,-0.2422014474868774,0.5120488970873608,0.3359945179765938,-0.1272650106755759,0.7802032746268244,0.1460244859115705,-0.7230327920430036,2.0353085315297994,25150,3.253304007337432,serve,serves_watch-right
830,1761597288782492416,32.01349234580994,1.172163486480713,0.2553100883960724,-3.1104116439819336,-0.6484582424163818,-0.1737991124391555,-0.7411448955535889,-0.1402380466461181,0.2652602791786194,-0.2339985370635986,0.5221404144777472,0.3401089091895424,-0.1172752108021373,0.7732669938941563,0.1746861922364,-0.7187967153673703,2.0195404004169393,25160,3.333738303360632,serve,serves_watch-right
840,1761597288792538368,32.02353835105896,1.3745187520980835,-0.2038164585828781,-3.1248841285705566,-0.641167402267456,-0.2047587782144546,-0.7395797967910767,-0.1639473438262939,0.2589732408523559,-0.2190841436386108,0.532127656062084,0.344933479899612,-0.1059764548301483,0.7659178181897497,0.2062172575655329,-0.7142437699431324,2.004373529245469,25170,3.4199040579599167,serve,serves_watch-right
850,1761597288802584320,32.03358435630798,1.144910216331482,0.1797632873058319,-3.278367519378662,-0.6339011788368225,-0.233596846461296,-0.737293541431427,-0.2088111639022827,0.2847900986671448,-0.089366614818573,0.5421330569057137,0.3495152867300119,-0.0958764243445418,0.7581151233946631,0.2357752396187852,-0.7101374765665162,1.9877794980362755,25180,3.477186770226788,serve,serves_watch-right
860,1761597288812630528,32.04363036155701,1.1606249809265137,0.4091368019580841,-3.4281508922576904,-0.6231775879859924,-0.2638649642467499,-0.7362234592437744,-0.06885427236557,0.3202309310436249,-0.2804391384124756,0.5528918659030124,0.3532032081705832,-0.0844734208945384,0.7499482175096895,0.2670270077868042,-0.70243045108296,1.9693700121648472,25190,3.642342901094618,serve,serves_watch-right
870,1761597288822676480,32.05367636680603,1.029435634613037,0.476950079202652,-3.3016858100891113,-0.6104587912559509,-0.2926322519779205,-0.7360071539878845,-0.1864925026893615,0.1249076426029205,-0.1709142923355102,0.5633194196887719,0.3559037213024431,-0.0729998553962986,0.7420747329672145,0.2969784437541755,-0.6924241263294986,1.9507977099615563,25200,3.4911815037901355,serve,serves_watch-right
880,1761597288832722432,32.063722372055054,0.9909827709197998,0.4574027359485626,-3.3432650566101074,-0.5968397259712219,-0.3202494084835052,-0.7356783747673035,-0.2532579302787781,0.1922434270381927,-0.1599056720733642,0.5739342119145231,0.3582192465639435,-0.0619658909227583,0.7337839248142183,0.325992754257662,-0.6815800706493896,1.930569167985912,25210,3.516914180622453,serve,serves_watch-right
890,1761597288842767360,32.07376742362976,0.9305387139320374,0.5120618343353271,-3.3861656188964844,-0.5819887518882751,-0.3472845256328583,-0.7353112697601318,-0.2872434258460998,0.3484747111797333,-0.1264441013336181,0.5844174856667075,0.3602214322981923,-0.0508418933707237,0.7253357459866144,0.3546738380901995,-0.6695280347777375,1.9096789997384185,25220,3.548834628283736,serve,serves_watch-right
900,1761597288852813568,32.083813428878784,0.8250018954277039,0.5626088976860046,-3.406625509262085,-0.5657661557197571,-0.3733910322189331,-0.7351787686347961,-0.2332603335380554,0.3255242109298706,-0.1415302157402038,0.5951927015819884,0.3616897357474297,-0.0398891860214607,0.7164740959027665,0.3826617708121572,-0.6559041240467822,1.8868173830641308,25230,3.5499653885030944,serve,serves_watch-right
910,1761597288862859520,32.09385943412781,0.774113655090332,0.6659417152404785,-3.422083616256714,-0.5479653477668762,-0.3983766138553619,-0.7355474829673767,-0.2460867166519165,0.3179322779178619,-0.1474023461341858,0.6057392118397232,0.362486755035383,-0.0288029367886837,0.7077103252115831,0.4097462667094969,-0.6402781190874504,1.8633224079904545,25240,3.571188401043464,serve,serves_watch-right
920,1761597288872905472,32.10390543937683,0.772383451461792,0.6550896167755127,-3.385363817214966,-0.5289801955223083,-0.4225450754165649,-0.735958993434906,-0.2948876023292541,0.3332200944423675,-0.1208677887916565,0.6164563449404088,0.3629092166134887,-0.0178158957268607,0.69854210052871,0.4362515585639114,-0.6232079789669145,1.8380251690520413,25250,3.533611010992495,serve,serves_watch-right
930,1761597288882951424,32.113951444625854,0.7129778265953064,0.7109489440917969,-3.327240228652954,-0.5093770623207092,-0.4455584287643432,-0.7362151145935059,-0.3562845587730407,0.3937701284885406,-0.1279816031455993,0.6268134339867398,0.3631027092591441,-0.006989777576727,0.6893565517248166,0.4617979143665399,-0.6052596296391,1.8123008905420777,25260,3.476249893417959,serve,serves_watch-right
940,1761597288892997376,32.12399744987488,0.6257281303405762,0.7813578844070435,-3.308964729309082,-0.4886102080345154,-0.467166393995285,-0.7368959188461304,-0.3451147675514221,0.40640589594841,-0.1592832803726196,0.6370059126251144,0.3626816083784247,0.0037531174291596,0.6801995303920098,0.4860832335237402,-0.585505281502643,1.7855456287120397,25270,3.457065723476499,serve,serves_watch-right
950,1761597288903043584,32.1340434551239,0.5073338747024536,0.8500636219978333,-3.238548994064331,-0.4669021368026733,-0.487113207578659,-0.7380536198616028,-0.3557144403457641,0.3833991885185241,-0.1555773615837097,0.6468056693769831,0.3616159073727947,0.0143916325893083,0.6713190745459986,0.5087812108092705,-0.5640549271953025,1.758386620920552,25280,3.3864724137101385,serve,serves_watch-right
960,1761597288913089536,32.144089460372925,0.3342984914779663,0.9505814909934998,-3.2217936515808105,-0.4441542029380798,-0.5049775242805481,-0.7400842308998108,-0.3562608361244201,0.3474000096321106,-0.1546911001205444,0.65675718821261,0.3596577167539245,0.0245804900097341,0.6623534133366961,0.5293559256302022,-0.5405224771086686,1.7291755346651614,25290,3.375694741203695,serve,serves_watch-right
970,1761597288923134208,32.15413427352905,0.2204841673374176,0.9941863417625428,-3.2405664920806885,-0.4202596545219421,-0.5210530757904053,-0.742889940738678,-0.3561838269233703,0.3429678082466125,-0.1339258551597595,0.6667975579697197,0.3568789196851165,0.0345322064529636,0.6533191288174154,0.5480842961916119,-0.5148239681285252,1.6981158088734891,25300,3.3968059908964188,serve,serves_watch-right
980,1761597288933180416,32.164180278778076,0.1007023677229881,1.0869413614273071,-3.250220775604248,-0.3952929377555847,-0.5355876088142395,-0.7462502121925354,-0.3610394299030304,0.3521312475204468,-0.1212271451950073,0.6768760184629601,0.3534230227051524,0.044351532625731,0.6441769223928878,0.5652034120882568,-0.4871287272178321,1.6653663661026614,25310,3.428632027531672,serve,serves_watch-right
990,1761597288943226368,32.1742262840271,-0.0302170645445585,1.212788224220276,-3.2852604389190674,-0.3688740134239197,-0.548356294631958,-0.7504913806915283,-0.3298716843128204,0.3123639225959778,-0.1039549708366394,0.6870229592917706,0.3490301306081198,0.0541505247210189,0.6350158448003861,0.5803974060539602,-0.4568325726502255,1.630784015784669,25320,3.502100012752886,serve,serves_watch-right
1000,1761597288953272320,32.18427228927612,-0.09633669257164,1.311629295349121,-3.335573196411133,-0.3408698141574859,-0.5596862435340881,-0.755353569984436,-0.3430595993995666,0.3234955072402954,-0.0746329426765441,0.697251753076601,0.3438218549791846,0.064107233263905,0.6257129578572753,0.594007130953487,-0.4239111012195856,1.594281340016949,25330,3.585484725301456,serve,serves_watch-right
1010,1761597288963318272,32.19431829452515,-0.1276582330465316,1.3837952613830566,-3.3321595191955566,-0.3117104768753052,-0.5697828531265259,-0.7603841423988342,-0.3547934293746948,0.3454939126968384,-0.0589670538902282,0.7073746808785043,0.3380818708647837,0.0742197477698669,0.6162897983019527,0.6062416019302056,-0.3890442821615155,1.55646736954085,25340,3.6103286569585777,serve,serves_watch-right
1020,1761597288973364480,32.20436429977417,-0.2181322127580642,1.4891018867492676,-3.3458943367004395,-0.2814641892910003,-0.5784339904785156,-0.7656317949295044,-0.3301385939121246,0.3400306701660156,-0.0412529706954956,0.7173350742798111,0.3317411683226726,0.0844506360724864,0.606833017262459,0.6168076505731875,-0.3522879121121908,1.5175636147349605,25350,3.668789310348447,serve,serves_watch-right
1030,1761597288983410432,32.21441030502319,-0.2712633609771728,1.562727928161621,-3.3522074222564697,-0.2500809729099273,-0.5854568481445312,-0.7711678147315979,-0.3143416345119476,0.3577957153320312,-0.0147970914840698,0.727184652098259,0.3247081101763476,0.0947666791720959,0.597316014952011,0.6254434272738388,-0.3135883517110794,1.4774622752451028,25360,3.7085033356188735,serve,serves_watch-right
1040,1761597288993456384,32.22445631027222,-0.2958206236362457,1.6201221942901611,-3.2979133129119873,-0.2180393189191818,-0.5911286473274231,-0.776547372341156,-0.309029757976532,0.4008820652961731,0.004666268825531,0.7367361829936089,0.3172820004489323,0.1051591754807131,0.5877869915782457,0.632457433222347,-0.2737322778498961,1.43689770406788,25370,3.6862634177825955,serve,serves_watch-right
1050,1761597289003502336,32.23450231552124,-0.3402363955974579,1.6770050525665283,-3.26080060005188,-0.1856354922056198,-0.5952890515327454,-0.7817738652229309,-0.2770262360572815,0.4106882810592651,0.0320638418197631,0.745918830427326,0.3094669541053939,0.1155130544015941,0.5783528878188816,0.6376253642273806,-0.2331364429115964,1.3963291784889809,25380,3.6825164364224516,serve,serves_watch-right
1060,1761597289013547520,32.24454736709595,-0.4085597693920135,1.7661701440811155,-3.2481565475463867,-0.152594044804573,-0.5978929400444031,-0.7869174480438232,-0.2542510032653808,0.4220048785209656,0.0505282878875732,0.7548259469879544,0.301145657703264,0.125906927658142,0.5689434233193836,0.640869888746823,-0.1915365227385194,1.3555215743089917,25390,3.719784808342766,serve,serves_watch-right
1070,1761597289023593472,32.25459337234497,-0.4667621850967407,1.8558385372161863,-3.255549192428589,-0.1186786293983459,-0.5988359451293945,-0.792029619216919,-0.2468151301145553,0.4217119216918945,0.0673286914825439,0.7634928221225622,0.292190074101671,0.1364190392670544,0.559547665360224,0.6420468493686037,-0.1487345957092825,1.3144457060837609,25400,3.7763215114679305,serve,serves_watch-right
1080,1761597289033639424,32.264639377593994,-0.5002793669700623,1.920943021774292,-3.244285821914673,-0.084121786057949,-0.5983254909515381,-0.7968249917030334,-0.2385863363742828,0.4246957898139953,0.0912586450576782,0.7718997933284947,0.2827880897694695,0.1470319524935236,0.550075590212339,0.6414096378538283,-0.105181609630801,1.2732657663847158,25410,3.803379028205824,serve,serves_watch-right
1090,1761597289043685376,32.27468538284302,-0.5450781583786011,1.9951430559158323,-3.228153705596924,-0.0489879287779331,-0.5962816476821899,-0.8012791872024536,-0.2320179343223571,0.4329057931900024,0.0993902087211608,0.7799976458247888,0.2729065773121233,0.1577415427443141,0.5405952407507453,0.6388612031763607,-0.0610611515451528,1.232325493628751,25420,3.8338860649828557,serve,serves_watch-right
1100,1761597289053731328,32.28473138809204,-0.5729955434799194,2.0484297275543213,-3.1805760860443115,-0.0135269779711961,-0.59279865026474,-0.8052371144294739,-0.2241439223289489,0.4475807547569275,0.1109164357185363,0.7877283828736167,0.2626519046992884,0.168509436945065,0.5311332327552012,0.6345294774048778,-0.0167971717115073,1.1919968962138696,25430,3.8262844223467067,serve,serves_watch-right
1110,1761597289063777536,32.294777393341064,-0.6264404654502869,2.1225435733795166,-3.089555501937866,0.0219394993036985,-0.5878286361694336,-0.8086879253387451,-0.2142917960882187,0.4436025619506836,0.1109492778778076,0.7949676601157318,0.2520361229255637,0.179259104436579,0.5218912269188772,0.6283721640388465,0.0271230936065076,1.1530392533946017,25440,3.8003910426695304,serve,serves_watch-right
1120,1761597289073823488,32.30482339859009,-0.6744053363800049,2.1700985431671143,-3.0163726806640625,0.057344876229763,-0.5812921524047852,-0.8116717338562012,-0.2025475203990936,0.4245538711547851,0.1227526664733886,0.8017084849022746,0.2409999436813376,0.1899556667148501,0.5129321989523767,0.620315800869109,0.0705331322046024,1.115726691317561,25450,3.776592961049729,serve,serves_watch-right
1130,1761597289083869440,32.31486940383911,-0.6726306676864624,2.170360565185547,-2.939502477645874,0.0923453941941261,-0.5735523104667664,-0.8139472603797913,-0.1999350935220718,0.4364063143730163,0.1494117379188537,0.8079756964480347,0.2298093277319164,0.2005343962569419,0.5041319442819171,0.6108357654128639,0.1129707188574142,1.0800280836135778,25460,3.715315843116315,serve,serves_watch-right
1140,1761597289093914624,32.32491445541382,-0.7008260488510132,2.2209410667419434,-2.872332811355591,0.1268796771764755,-0.564773678779602,-0.8154337406158447,-0.1872587203979492,0.4468690752983093,0.160694420337677,0.8137661216209428,0.2185302687059892,0.2110157344783425,0.4954811057299934,0.6001589790546443,0.1543599906631123,1.0459894747543617,25470,3.6978415531062003,serve,serves_watch-right
1150,1761597289103960576,32.33496046066284,-0.7380467653274536,2.2514050006866455,-2.8164162635803223,0.1612224578857422,-0.554730236530304,-0.816260814666748,-0.1668987423181533,0.4309051632881164,0.173346996307373,0.8191213660485771,0.2069503367648762,0.2214523906668196,0.4870016344378881,0.5880387091249512,0.1950034830276951,1.0135757888418575,25480,3.680453514811306,serve,serves_watch-right
1160,1761597289114006528,32.345006465911865,-0.7393231987953186,2.230001211166382,-2.731618642807007,0.1948415488004684,-0.5437633991241455,-0.8163076639175415,-0.1737081259489059,0.428696870803833,0.195961594581604,0.8240411998256871,0.195353290462387,0.231696507374406,0.4786542997450044,0.5749149062637701,0.2343025754194801,0.982896116641946,25490,3.602949431203728,serve,serves_watch-right
1170,1761597289124052480,32.35505247116089,-0.8030933737754822,2.2894515991210938,-2.647754430770874,0.2278444468975067,-0.531760036945343,-0.815670371055603,-0.1641542911529541,0.4040440320968628,0.2022976279258728,0.8284922560065613,0.1835919427866307,0.2417825844176815,0.4705695405032451,0.5606774453583806,0.2723909928782882,0.9542148786040948,25500,3.591260380059766,serve,serves_watch-right
1180,1761597289134098432,32.36509847640991,-0.8302808403968811,2.3026723861694336,-2.57315993309021,0.2604320347309112,-0.5186656713485718,-0.814346969127655,-0.1667736172676086,0.379276692867279,0.2155921459197998,0.8324924845180293,0.1715617955122441,0.2517797758465284,0.4627414522039204,0.5452895712100424,0.3095258187922056,0.9274596095535712,25510,3.5514530030986187,serve,serves_watch-right
1190,1761597289144144640,32.375144481658936,-0.8758737444877625,2.308480024337769,-2.493976354598999,0.2921892702579498,-0.5046862363815308,-0.8123528957366943,-0.1768633425235748,0.3780688047409057,0.2082421779632568,0.8357195740177272,0.159239271707524,0.261660868412072,0.455795080605508,0.5290184689039312,0.3452746402555542,0.9042077598824264,25520,3.509437689480814,serve,serves_watch-right
1200,1761597289154190592,32.38519048690796,-0.9713006615638732,2.379807233810425,-2.4083125591278076,0.3234963417053222,-0.489622950553894,-0.8097033500671387,-0.1495919227600097,0.3315114080905914,0.1899371147155761,0.838661910198998,0.1466624071853201,0.2713641029442913,0.4488851142229767,0.5116572845769296,0.380096412558341,0.8823329354513179,25530,3.522339680908639,serve,serves_watch-right
1210,1761597289164236288,32.3952362537384,-0.9803650975227356,2.3845412731170654,-2.303868532180786,0.3542214930057525,-0.4736394584178924,-0.8063453435897827,-0.1463509798049926,0.2950505912303924,0.2024177312850952,0.8410242002775548,0.1337404037607637,0.2809641227210588,0.4425505154805865,0.4934185904297305,0.4139140035565238,0.8631254470003438,25540,3.457594976455798,serve,serves_watch-right
1220,1761597289174282240,32.40528225898743,-0.963010847568512,2.3681697845458984,-2.217226505279541,0.3838356137275696,-0.4574981927871704,-0.8021007776260376,-0.1507118344306945,0.3010956346988678,0.2004314661026001,0.8430371462192859,0.1210968788467715,0.2903190615939721,0.4362783933270181,0.4751796506427095,0.4463309660703357,0.845305867346658,25550,3.3840377357064026,serve,serves_watch-right
1230,1761597289184327424,32.415327310562134,-1.000304937362671,2.4338860511779785,-2.1540791988372803,0.4129199385643005,-0.4408914744853973,-0.7969390749931335,-0.125734269618988,0.2806284427642822,0.1784393191337585,0.8445102869198686,0.1082970771929186,0.2996701688153967,0.4304323956229726,0.4565916667938665,0.4780480691818721,0.8296110287805428,25560,3.400657064847076,serve,serves_watch-right
1240,1761597289194373376,32.42537331581116,-0.9707875847816468,2.408358097076416,-2.052232503890991,0.441340833902359,-0.424011766910553,-0.7908428311347961,-0.1290849149227142,0.2792821526527405,0.1950938701629638,0.8458279385167717,0.0957078439152931,0.3088990236365557,0.4242600316446872,0.4378704156818819,0.5090132204782641,0.8142022857103267,25570,3.3097243855865712,serve,serves_watch-right
1250,1761597289204419328,32.43541932106018,-0.9520723223686218,2.3913605213165283,-1.9496606588363647,0.4685099720954895,-0.4073449671268463,-0.7839441895484924,-0.1423075497150421,0.2903863489627838,0.1978388428688049,0.8467176470145557,0.0834618284466897,0.3179025482664127,0.4183794181075513,0.4195450185215823,0.5386763552870243,0.800456004408217,25580,3.228966326016096,serve,serves_watch-right
1260,1761597289214465280,32.445465326309204,-0.9449042081832886,2.414310932159424,-1.8662925958633425,0.4948002398014068,-0.390782356262207,-0.7761842012405396,-0.1064335405826568,0.2576341927051544,0.175705075263977,0.8471785448143359,0.0714017765468656,0.3268175052511274,0.4127720360807457,0.4014813849806925,0.5675218778522305,0.7882177808591344,25590,3.194493589469437,serve,serves_watch-right
1270,1761597289224511488,32.45551133155823,-0.91864413022995,2.3730082511901855,-1.7629338502883911,0.5199757218360901,-0.3745001554489136,-0.7677075862884521,-0.098802626132965,0.2356146574020385,0.1806256771087646,0.8471151835718136,0.0595297995366799,0.3355628374830953,0.4077372722838665,0.383857631075457,0.5953346455635313,0.7781044426971364,25600,3.095643868198552,serve,serves_watch-right
1280,1761597289234557440,32.46555733680725,-0.8964512348175049,2.3791308403015137,-1.674080729484558,0.543852686882019,-0.3586155772209167,-0.758695662021637,-0.0906209349632263,0.2246434092521667,0.1673870086669922,0.8467391760730056,0.0480472176482798,0.3440111133099218,0.4029646577859002,0.366784387480685,0.6219295059386701,0.7692875041631854,25610,3.04408190765478,serve,serves_watch-right
1290,1761597289244603392,32.475603342056274,-0.836580216884613,2.339682340621948,-1.618972897529602,0.5672386884689331,-0.3430260419845581,-0.7487145066261292,-0.0591820478439331,0.1990746259689331,0.1665612459182739,0.8459588201963707,0.0367162316647112,0.3525544661742775,0.39838552985895,0.3501365074823351,0.6483580488085098,0.7615062225719927,25620,2.965645487450632,serve,serves_watch-right
1300,1761597289254649344,32.4856493473053,-0.8224936723709106,2.293701648712158,-1.533513069152832,0.589694619178772,-0.3277774155139923,-0.7381207942962646,-0.0621830224990844,0.1885257065296173,0.1709363460540771,0.8450801679676366,0.0258383128171714,0.3609321146071404,0.393573336778014,0.3339500496071602,0.674078046303772,0.753722336504828,25630,2.879101496588406,serve,serves_watch-right
1310,1761597289264695296,32.49569535255432,-0.8349987268447876,2.2887368202209473,-1.4603431224822998,0.6112810969352722,-0.3126861751079559,-0.7270232439041138,-0.0583941340446472,0.1916839778423309,0.1361571550369262,0.8439127129686395,0.0151068905144255,0.3691343536130536,0.3890025000116609,0.3180196921695168,0.6991286722069489,0.7470635235287086,25640,2.840447348825333,serve,serves_watch-right
1320,1761597289274740480,32.50574040412903,-0.8373066186904907,2.2735400199890137,-1.381043791770935,0.6321219205856323,-0.2977768778800964,-0.7153676152229309,-0.0497549176216125,0.1628739237785339,0.1341146230697631,0.8423501934089714,0.0043975934579043,0.3772225403853451,0.3848765718537327,0.3023630252579625,0.7236981875062091,0.7419660911019227,25650,2.788789800430213,serve,serves_watch-right
1330,1761597289284786432,32.51578640937805,-0.8031836748123169,2.2336153984069824,-1.2936052083969116,0.6520285606384277,-0.2833079397678375,-0.7032747864723206,-0.0459494590759277,0.1410044729709625,0.1253328323364257,0.8404471176874335,-0.0061202613677593,0.3851300525443928,0.3811640503702586,0.2872416299922029,0.7476045301302557,0.7382349907973397,25660,2.7032491928561484,serve,serves_watch-right
1340,1761597289294832384,32.525832414627075,-0.7716164588928223,2.216349840164185,-1.22370445728302,0.6710267663002014,-0.2694713771343231,-0.6907302737236023,-0.0238710045814514,0.1482402980327606,0.0969344973564148,0.8383482398549351,-0.0162234676052935,0.3929015936186694,0.3775413496083488,0.2728440478672189,0.7709300024448523,0.7349854672693087,25670,2.6467057207790288,serve,serves_watch-right
1350,1761597289304878592,32.5358784198761,-0.7848432660102844,2.216012716293335,-1.1337178945541382,0.6893426179885864,-0.256089299917221,-0.6776614189147949,0.0092352032661437,0.1283580064773559,0.0855746865272522,0.8359032319242693,-0.0261979407544001,0.4006032491991623,0.37429451528054,0.2589744247930965,0.7939430534940229,0.7329280120776881,25680,2.609982294079353,serve,serves_watch-right
1360,1761597289314924544,32.54592442512512,-0.743404746055603,2.194793701171875,-1.0590527057647705,0.7069185376167297,-0.243250623345375,-0.6641499996185303,0.0260831117630004,0.1030528545379638,0.0684468746185302,0.8332585748724598,-0.0358650194376697,0.4082140310507304,0.3711536915023121,0.2457157301406503,0.8165816353198566,0.7313511800755511,25690,2.5478152681757393,serve,serves_watch-right
1370,1761597289324970496,32.555970430374146,-0.7010971307754517,2.1758780479431152,-1.0082883834838867,0.7237567901611328,-0.2311068326234817,-0.6502043008804321,0.0348033308982849,0.0951052457094192,0.0518614649772644,0.8303803904005785,-0.0451943613733763,0.4157587161955661,0.3681989533400789,0.2332151521367583,0.8388802752061181,0.7303502672670494,25700,2.498525151078304,serve,serves_watch-right
1380,1761597289335016448,32.56601643562317,-0.6702883243560791,2.164849758148194,-0.96068674325943,0.7399588823318481,-0.2194462716579437,-0.6358491778373718,0.0250252485275268,0.0955906808376312,0.0372774004936218,0.8274533500687706,-0.054115148813357,0.4232575607012077,0.3650280818634719,0.2212468682623214,0.8609258923915025,0.7290132494800817,25710,2.4614589031297647,serve,serves_watch-right
1390,1761597289345062400,32.57606244087219,-0.6167764067649841,2.1880249977111816,-0.9152015447616576,0.7556735873222351,-0.2083525657653808,-0.6209239959716797,0.0017573833465576,0.1119627952575683,0.0141887664794921,0.824322467658845,-0.0627485730883625,0.430813901772948,0.3618763054161785,0.2098902594806003,0.88297329066665,0.7278576066733226,25720,2.4506040875843382,serve,serves_watch-right
1400,1761597289355108608,32.586108446121216,-0.5868451595306396,2.216761589050293,-0.8500095009803772,0.7710232138633728,-0.19789919257164,-0.6052760481834412,-0.0084041953086853,0.1006702035665512,-0.0076083540916442,0.8209098518065981,-0.0711366095677542,0.438522001503663,0.3588105856821608,0.1992142529791873,0.9052505369824176,0.7270081064342518,25730,2.445595088257709,serve,serves_watch-right
1410,1761597289365153280,32.596153259277344,-0.5784702301025391,2.267709970474243,-0.7928208112716675,0.7860248684883118,-0.1879805624485016,-0.5889212489128113,-0.0089405179023742,0.1021651476621627,-0.0242074131965637,0.8171962880101553,-0.0793707263478605,0.4463627115699045,0.3558804152232073,0.1891056543736055,0.9277818306111538,0.726621242972149,25740,2.4709717028101803,serve,serves_watch-right
1420,1761597289375199232,32.60619926452637,-0.5459882020950317,2.344205617904663,-0.7323800921440125,0.8008617758750916,-0.1786093413829803,-0.5715935230255127,0.0080218911170959,0.101811870932579,-0.0470893383026123,0.813100731256214,-0.0875157649339238,0.4544713800138145,0.3530779070403569,0.179572884686741,0.950919521142486,0.7266990549230785,25750,2.5159061379971273,serve,serves_watch-right
1430,1761597289385245440,32.61624526977539,-0.4639294147491455,2.400502443313598,-0.6686141490936279,0.815476655960083,-0.1700194776058197,-0.5532551407814026,0.0164935588836669,0.1032317727804184,-0.0646799802780151,0.8086451477529394,-0.0954050394470433,0.4628933944250201,0.3503151333599987,0.1708494348294845,0.9746845057129604,0.7269068670549246,25760,2.534696700315885,serve,serves_watch-right
1440,1761597289395291392,32.626291275024414,-0.350321888923645,2.4296445846557617,-0.6094698309898376,0.8297101259231567,-0.16254223883152,-0.5340049266815186,0.0214861631393432,0.1231135427951812,-0.0567238330841064,0.8039096400680369,-0.1027544847915089,0.4716344556615983,0.347464949745424,0.1632666158041036,0.998930436048756,0.7267197397931472,25770,2.5292986594099323,serve,serves_watch-right
1450,1761597289405337344,32.63633728027344,-0.2784999907016754,2.486628770828247,-0.5576767921447754,0.8435401916503906,-0.1560300886631012,-0.5139014720916748,0.0391961336135864,0.1439909189939499,-0.0620720982551574,0.7988565194751306,-0.1096999688349603,0.4806403847239363,0.3446434954373023,0.1566702342629797,1.0236250408988867,0.7264621209274068,25780,2.56356944380848,serve,serves_watch-right
1460,1761597289415383296,32.64638328552246,-0.2263321131467819,2.5438132286071777,-0.5132927894592285,0.857054591178894,-0.1502105593681335,-0.4928428828716278,0.0533609986305236,0.1440765261650085,-0.0501105487346649,0.7934667512639496,-0.116395352949298,0.4899292609720768,0.3418067390196092,0.1507812467205363,1.0489300481108357,0.726168210709905,25790,2.6049340596623933,serve,serves_watch-right
1470,1761597289425429248,32.656429290771484,-0.2439932227134704,2.6191351413726807,-0.4667026698589325,0.8702321648597717,-0.1448579281568527,-0.4708630442619324,0.0409310460090637,0.131506472826004,-0.0258257687091827,0.7876694666486581,-0.1230709556264914,0.4994216769591015,0.3391286438679856,0.1453693805639221,1.0748292006295193,0.7263918590151852,25800,2.6715562811883364,serve,serves_watch-right
1480,1761597289435475456,32.66647529602051,-0.2818082571029663,2.6791727542877197,-0.4062928557395935,0.8830555081367493,-0.1398045420646667,-0.4479595124721527,0.0234691500663757,0.1243321448564529,-0.0173420310020446,0.7815029538753822,-0.1297628924112109,0.5090990421336111,0.3365010423437783,0.1402640226437893,1.1013388866658125,0.7269642947534419,25810,2.7244185481886025,serve,serves_watch-right
1490,1761597289445521408,32.67652130126953,-0.3096626996994018,2.7422595024108887,-0.3400856256484985,0.8954436182975769,-0.1351847350597381,-0.4241532385349273,0.0056031346321105,0.1231303066015243,-0.0052443146705627,0.774866138024819,-0.1365487841966534,0.5189198507156557,0.3341544906473628,0.1355999103130673,1.128425996861238,0.7283998088649247,25820,2.780564043305003,serve,serves_watch-right
1500,1761597289455566336,32.68656635284424,-0.3153871595859527,2.7790985107421875,-0.2786057591438293,0.9072823524475098,-0.1310947090387344,-0.3995659947395324,-0.0015358924865722,0.1047427952289581,0.0270226597785949,0.7678569761802865,-0.1432542878766739,0.5288621801496334,0.3319317646838275,0.1314731338652893,1.1559554237550902,0.7302184158977945,25830,2.810779031135185,serve,serves_watch-right
1510,1761597289465612288,32.69661235809326,-0.3487178981304168,2.832909345626831,-0.2081878632307052,0.9184728860855104,-0.1275830268859863,-0.3743398487567901,0.0001063346862792,0.0940442234277725,0.0399892032146453,0.7604383945718696,-0.149949700262556,0.5388368602692956,0.3300053096369076,0.1279317119244036,1.1837831644153365,0.7328101688833489,25840,2.861873812629219,serve,serves_watch-right
1520,1761597289475658496,32.706658363342285,-0.3653128743171692,2.8522911071777344,-0.1228769570589065,0.9290048480033876,-0.1247531697154045,-0.3484059870243072,0.0024985074996948,0.0941898226737976,0.0579701662063598,0.7526123971194725,-0.156552901931779,0.5488972560578381,0.3282950297254034,0.1250790562169968,1.2119981306927516,0.7359138190540636,25850,2.878214169029663,serve,serves_watch-right
1530,1761597289485704448,32.71670436859131,-0.3745408952236175,2.8814892768859863,-0.0605013780295848,0.9387474060058594,-0.1226814612746238,-0.3220290243625641,-0.0129203796386718,0.10946736484766,0.0771559476852417,0.7444289034208217,-0.1630185721591656,0.5589368803585407,0.3268642213123217,0.1229913068064365,1.2403343053541522,0.7395826993306631,25860,2.9063588477246425,serve,serves_watch-right
1540,1761597289495750400,32.72675037384033,-0.3858177661895752,2.9155962467193604,0.0148439789190888,0.947764217853546,-0.1212756633758544,-0.2950175404548645,-0.0144756436347961,0.1041858345270156,0.103229820728302,0.7358412484060558,-0.1694167731641871,0.5690247726304746,0.3256478252583888,0.1215749274192845,1.269025719264045,0.7437498136645655,25870,2.9410503508613526,serve,serves_watch-right
1550,1761597289505796352,32.736796379089355,-0.352573037147522,2.903423547744751,0.0667262598872184,0.9559325575828552,-0.1206333935260772,-0.2676576673984527,-0.0159606337547302,0.1245854347944259,0.1134828329086303,0.7269357549563534,-0.1756345265040755,0.579071392436029,0.3246434170931269,0.1209279142716294,1.2977909730667978,0.7482650609833357,25880,2.925513363134867,serve,serves_watch-right
1560,1761597289515842560,32.74684238433838,-0.4373198747634887,2.9447667598724365,0.1501026451587677,0.9632350206375122,-0.1206741034984588,-0.2400336414575576,-0.0193263292312622,0.1224441304802894,0.1159644126892089,0.7177875938072665,-0.1816118334948639,0.5890673346239854,0.3237249148821134,0.1209689204945783,1.3265751720407726,0.7528083914662002,25890,2.9808439655568053,serve,serves_watch-right
1570,1761597289525888512,32.7568883895874,-0.5998489260673523,3.038187026977539,0.2297352403402328,0.9697818756103516,-0.1213946044445037,-0.2116284668445587,-0.0163822174072265,0.0994219556450843,0.1548504829406738,0.707967103535652,-0.1879272620237506,0.5990568539599183,0.323414416593891,0.121694760192961,1.355941860022459,0.758979393282561,25900,3.1053465870419292,serve,serves_watch-right
1580,1761597289535934464,32.766934394836426,-0.7491438388824463,3.1095540523529053,0.2576875388622284,0.9755655527114868,-0.1224352419376373,-0.1824321895837783,-0.015680968761444,0.0878740921616554,0.2113323211669922,0.6975253473586606,-0.1947066063582214,0.6089936312472993,0.323534442251514,0.1227432172066143,1.385930026486784,0.7666360326157433,25910,3.208885439451645,serve,serves_watch-right
1590,1761597289545979392,32.77697944641113,-0.9626240134239196,3.206670045852661,0.3018927872180938,0.9805286526679992,-0.1237277910113334,-0.1524959504604339,-0.0317676663398742,0.0815982744097709,0.2137295007705688,0.6863758748097197,-0.2021783278847203,0.6187697058677123,0.3242470011827236,0.124045666982876,1.416508146842642,0.776375807270327,25920,3.361624165364622,serve,serves_watch-right
1600,1761597289556025600,32.787025451660156,-1.134818196296692,3.3193447589874268,0.3597049713134765,0.98459792137146,-0.1255336105823516,-0.1216883733868599,-0.0384615659713745,0.0849147140979766,0.2182459980249405,0.6745424865004898,-0.2100733472379904,0.6285101447101079,0.3253252271433279,0.1258656829773879,1.4478279615144625,0.7874597545267771,25930,3.526364932058366,serve,serves_watch-right
1610,1761597289566071552,32.79707145690918,-1.2836674451828003,3.441375494003296,0.4242293536663055,0.9876881837844848,-0.1281416118144989,-0.0897306054830551,-0.0433981418609619,0.0814802348613739,0.2510312795639038,0.6618169738631725,-0.2184658014930566,0.6382847243675822,0.3268998490604954,0.1284949123903007,1.4801959150264716,0.8002032197151392,25940,3.69740962635474,serve,serves_watch-right
1620,1761597289576117504,32.8071174621582,-1.316261887550354,3.467296838760376,0.474363625049591,0.9896542429924012,-0.1316213905811309,-0.0571011342108249,-0.0496821999549865,0.1020345985889434,0.2780637145042419,0.6484516657110196,-0.2270127323135432,0.6480082197728128,0.3287265037565384,0.1320044167777459,1.5131621618309516,0.8137422367546376,25950,3.7389455162472625,serve,serves_watch-right
1630,1761597289586163456,32.81716346740723,-1.3053786754608154,3.5451929569244385,0.5487916469573975,0.9904001951217652,-0.1361165642738342,-0.024083312600851,-0.0486276149749755,0.1394277364015579,0.2657825350761413,0.6346076426517991,-0.2354041235195107,0.657680197277454,0.330628075303455,0.1365404289225947,1.5464843681542202,0.827335771765429,25960,3.817535705130299,serve,serves_watch-right
1640,1761597289596209408,32.82720947265625,-1.3093795776367188,3.646688938140869,0.6515907645225525,0.9898152351379396,-0.1420139521360397,0.0098990788683295,-0.0434650778770446,0.1358494013547897,0.2460060119628906,0.6200091474205688,-0.2435983832508941,0.6675397868924625,0.3326246714125972,0.142495693077516,1.5807969296104152,0.8408903859616427,25970,3.9290438549731377,serve,serves_watch-right
1650,1761597289606255616,32.83725547790527,-1.2606658935546875,3.6930277347564697,0.6969202756881714,0.9878252744674684,-0.1490893065929412,0.0444261543452739,-0.0604571104049682,0.1588702052831649,0.2393263578414917,0.6048173184522256,-0.2515688207305275,0.6774409244608022,0.3346385279261712,0.1496472238381644,1.6157397408705552,0.8542278615119341,25980,3.964016929267308,serve,serves_watch-right
1660,1761597289616301568,32.8473014831543,-1.221554160118103,3.802113533020019,0.7442950010299683,0.9843903183937072,-0.1569683998823166,0.0796024650335311,-0.045425534248352,0.1733410954475402,0.2561366558074951,0.5891695499928932,-0.2591712778254162,0.6874819860189284,0.336270670755932,0.1576202533508916,1.651485492829834,0.866455538846738,25990,4.062294540359428,serve,serves_watch-right
1670,1761597289626347520,32.85734748840332,-1.2883570194244385,3.956960678100586,0.8009384274482727,0.9793273210525512,-0.1658326238393783,0.1158334538340568,-0.0362427234649658,0.146103024482727,0.2547873258590698,0.5726807818835586,-0.2667639394948357,0.6976773795841943,0.3378164495751645,0.1666022697273058,1.6885279280654832,0.8785452921558023,26000,4.237794707403578,serve,serves_watch-right
1680,1761597289636393216,32.867393255233765,-1.4096466302871704,4.103452205657959,0.8417761325836182,0.9724738597869872,-0.175714835524559,0.1530328691005706,-0.0567786693572998,0.1178840398788452,0.2514775991439819,0.5551377037175228,-0.2747144274787969,0.7078477362370775,0.3395670284035132,0.1766318507632317,1.726880828790634,0.891524139993211,26010,4.419729707095964,serve,serves_watch-right
1690,1761597289646438400,32.87743830680847,-1.5738948583602903,4.272866725921631,0.889727771282196,0.9636663794517516,-0.1867142766714096,0.1910108029842376,-0.0674260258674621,0.1031571626663208,0.2502582371234894,0.5364437171556324,-0.2831585637065576,0.7178625421825001,0.3416472625126625,0.1878165403609938,1.7664726247476903,0.9058105141155488,26020,4.6396282814091885,serve,serves_watch-right
1700,1761597289656484352,32.887484312057495,-1.715572953224182,4.447301864624023,0.9294165372848512,0.9526891112327576,-0.198947936296463,0.2297900915145874,-0.0813052654266357,0.085269957780838,0.2432171404361724,0.5165250852201009,-0.2920283056538128,0.727746189526143,0.3439577154975177,0.2002842867382188,1.8074771144008352,0.9211342590557898,26030,4.8564904542994025,serve,serves_watch-right
1710,1761597289666530304,32.89753031730652,-1.8683640956878664,4.6380462646484375,0.9568695425987244,0.9393576383590698,-0.2124194055795669,0.2692315578460693,-0.0992084741592407,0.0719469785690307,0.2346747517585754,0.4953240465841603,-0.3013795033761768,0.7374185916527536,0.3464656599720599,0.2140502078768172,1.8499261474717488,0.9375449456699472,26040,5.0909583448136715,serve,serves_watch-right
1720,1761597289676576256,32.90757632255554,-1.9865336418151855,4.855758190155029,0.9617804288864136,0.923439919948578,-0.2270066142082214,0.3093969523906708,-0.1165857911109924,0.0806748569011688,0.214498221874237,0.4727932148585481,-0.3111914148014307,0.7468991737012097,0.3489527157573174,0.2290029448038315,1.8940895323677416,0.9546797294174812,26050,5.33382837225853,serve,serves_watch-right
1730,1761597289686622464,32.917622327804565,-2.037479877471924,5.081416606903076,0.9562526345252992,0.9047210812568665,-0.2424840033054351,0.3502585887908935,-0.136807382106781,0.117957055568695,0.185477465391159,0.4489150125838005,-0.3214958643196487,0.7561545509230172,0.3512064079169444,0.2449254572040229,1.940172262168012,0.9722967243179008,26060,5.557565841719732,serve,serves_watch-right
1740,1761597289696668416,32.92766833305359,-1.94576096534729,5.272456645965576,0.9266716241836548,0.8830214738845825,-0.2584347128868103,0.3917715847492218,-0.1600446701049804,0.1816677153110504,0.1635568737983703,0.4239812495515721,-0.3318099380481624,0.7653678610604006,0.3526389805394622,0.2614015059060037,1.988375146335979,0.9887047636524748,26070,5.695920041303508,serve,serves_watch-right
1750,1761597289706714368,32.93771433830261,-1.760286808013916,5.476862907409668,0.8768050074577332,0.8583157658576965,-0.2739917039871216,0.4338458776473999,-0.1726622581481933,0.2300617098808288,0.1513896286487579,0.3982344281936481,-0.3421742838150516,0.7744931913993842,0.3528261311560046,0.2775411372885299,2.038803875928804,1.0034129932533036,26080,5.819228812663295,serve,serves_watch-right
1760,1761597289716760320,32.947760343551636,-1.5858529806137085,5.6443939208984375,0.8411650061607361,0.8304630517959595,-0.2888719141483307,0.4763236939907074,-0.1726565957069397,0.2339402735233307,0.1285804510116577,0.3719308851538954,-0.3521492750864285,0.7836789732140513,0.3514336347359379,0.2930483104790209,2.0915507393270074,1.015191487485058,26090,5.922978218597972,serve,serves_watch-right
1770,1761597289726806528,32.95780634880066,-1.5593420267105105,5.864002704620361,0.8309564590454102,0.7992455959320068,-0.3034901320934295,0.5187488794326782,-0.1644951105117797,0.2509540915489197,0.120151937007904,0.3447470906816895,-0.3621386385046577,0.7926096343486729,0.3489628335026324,0.3083534131053886,2.146502104856487,1.0255577249525274,26100,6.124423557600327,serve,serves_watch-right
1780,1761597289736851456,32.967851400375366,-1.7245755195617676,6.135611534118652,0.7962653040885925,0.7641526460647583,-0.3187861442565918,0.5607550740242004,-0.1399003267288208,0.2512812614440918,0.0798699855804443,0.3161596324880499,-0.3723521837141276,0.8010813838474875,0.3459271483420238,0.3244485320116432,2.203865446934338,1.035630049823202,26110,6.422922080702589,serve,serves_watch-right
1790,1761597289746897408,32.97789740562439,-1.9194583892822263,6.397310256958008,0.7774414420127869,0.7249644994735718,-0.335243672132492,0.6016958355903625,-0.1249737739562988,0.1946339905261993,0.0576211214065551,0.2858170271439626,-0.3832382309285702,0.8086880517578403,0.3427252940179707,0.3418638624831958,2.263543970654861,1.046866647935764,26120,6.724158997802251,serve,serves_watch-right
1800,1761597289756943360,32.98794341087341,-2.1048004627227783,6.648783206939697,0.7939077615737915,0.6814820766448975,-0.3534154891967773,0.640842616558075,-0.162683367729187,0.1457281410694122,0.0426441431045532,0.2537347760758822,-0.3943291079682961,0.8154298727645307,0.3394071725334425,0.3612196945408945,2.3254708313180497,1.058417001285488,26130,7.019030748945929,serve,serves_watch-right
1810,1761597289766989568,32.99798941612244,-2.2047436237335205,6.83558988571167,0.8136431574821472,0.6339083313941956,-0.3730374872684479,0.6774976849555969,-0.2003604173660278,0.1783964037895202,0.0504379868507385,0.2201037706999107,-0.4055810736749057,0.821129002520278,0.3358652108656545,0.3822806736531841,2.3894209087099822,1.0700859494471455,26140,7.2282915491667055,serve,serves_watch-right
1820,1761597289777035008,33.0080349445343,-2.340599298477173,6.95501708984375,0.8334546685218811,0.5825530290603638,-0.393894225358963,0.7109706401824951,-0.2112609148025512,0.2406502068042755,0.0649998188018798,0.1853175029715323,-0.4164510028921957,0.825865534514283,0.3319217944830131,0.404864502310989,2.455147621551455,1.080531853957245,26150,7.385479976313752,serve,serves_watch-right
1830,1761597289787080960,33.018080949783325,-2.4363269805908203,7.068696022033691,0.8686405420303345,0.5279735922813416,-0.4160619080066681,0.7403622269630432,-0.2220196723937988,0.2992254197597503,0.0652408003807067,0.1494901881597756,-0.4270859703382942,0.8293242352817737,0.3278285034166042,0.4291102900460501,2.522109692268135,1.090375309304051,26160,7.527063770125006,serve,serves_watch-right
1840,1761597289797126912,33.02812695503235,-2.421924352645874,7.343609809875488,0.9028677344322203,0.4696546196937561,-0.4389811754226684,0.76597660779953,-0.2236371636390686,0.2721110582351684,0.0744012594223022,0.1126934948125223,-0.4367754057637691,0.8319949251873318,0.3229735334622141,0.4544644507347072,2.5915638430837236,1.0971552687243245,26170,7.785209872284588,serve,serves_watch-right
1850,1761597289807173120,33.03817296028137,-2.3918561935424805,7.443556785583496,0.9510484337806702,0.4075773358345032,-0.4618253707885742,0.7877807021141052,-0.224715918302536,0.1833523511886596,0.1062776446342468,0.0748626725896305,-0.4459488026797108,0.8336786047838377,0.3170257740493133,0.4800520822048133,2.664142555244831,1.1013631800021615,26180,7.876040045237854,serve,serves_watch-right
1860,1761597289817219072,33.048218965530396,-2.4269983768463135,7.38336706161499,1.0267748832702637,0.343531459569931,-0.4847594499588012,0.8043593764305115,-0.2591504454612732,0.2322876453399658,0.1436538100242614,0.0368066843249563,-0.4541734348861321,0.8342099160948159,0.3105889067199331,0.5060881275075135,2.7379555997548537,1.1028390864057047,26190,7.839559742018073,serve,serves_watch-right
1870,1761597289827263744,33.05826377868652,-2.6100587844848633,7.327520847320557,1.0625426769256592,0.278433084487915,-0.5084475874900818,0.8148351311683655,-0.2315733432769775,0.3451938033103943,0.2360377311706543,-0.0013943634401361,-0.4613611896840698,0.8334047085029677,0.304270514582569,0.5333809679893843,2.812326788201343,1.1018987454270288,26200,7.850730256904279,serve,serves_watch-right
1880,1761597289837309952,33.06830978393555,-3.029406785964966,7.214653015136719,1.0320580005645752,0.2131984382867813,-0.534003496170044,0.8181605339050293,-0.1605861186981201,0.3457558155059814,0.3497624397277832,-0.039937185015851,-0.4676968252595477,0.8308669822374688,0.2988724676854498,0.5633287140932581,2.8866789224862828,1.0995190031028377,26210,7.8926337378723765,serve,serves_watch-right
1890,1761597289847355904,33.07835578918457,-3.749969720840454,7.0807671546936035,1.0558806657791138,0.1488205343484878,-0.5635366439819336,0.8125754594802856,-0.1166092455387115,0.2443686127662658,0.4549110531806946,-0.0792338773618082,-0.4730243053056914,0.826157211984247,0.2956928565322093,0.5986607922102999,2.9604534223715393,1.096035500455729,26220,8.081733748805025,serve,serves_watch-right
1900,1761597289857401856,33.088401794433594,-4.7389445304870605,6.930932521820068,1.2079074382781982,0.0856139659881591,-0.5990450382232666,0.7961252331733704,-0.1105773448944091,0.1009218692779541,0.5346090793609619,-0.1201422082986804,-0.4772340867368263,0.8187247616074418,0.2958095154142146,0.6423079724622041,3.034466025486614,1.091169342686671,26230,8.482597554081186,serve,serves_watch-right
1910,1761597289867447808,33.09844779968262,-5.888656139373779,6.7933430671691895,1.467274785041809,0.0233331024646759,-0.6415128707885742,0.7667574286460876,-0.1259026825428009,-0.059063971042633,0.5938078165054321,-0.1631658027747333,-0.4787838803896861,0.8087921353570787,0.2999970857991683,0.696468818276366,3.1111711646104676,1.0800388733346182,26240,9.10926322217443,serve,serves_watch-right
1920,1761597289877493760,33.10849380493164,-6.512678146362305,6.826699733734131,1.6400856971740725,-0.0376921594142913,-0.6886546611785889,0.7241091132164001,-0.1474579870700836,-0.1521351337432861,0.7402310371398926,-0.2080551056654789,-0.4772956863438161,0.7963939873366105,0.3076662126643439,0.7596319915052279,-3.089586443329379,1.0590754515883067,26250,9.576465265782868,serve,serves_watch-right
1930,1761597289887539968,33.118539810180664,-5.946064472198486,6.975770473480225,1.7710856199264526,-0.0984644889831543,-0.731500506401062,0.6746935248374939,-0.1678929477930069,-0.2004909515380859,0.9942058324813844,-0.2532385142027996,-0.4744380152620597,0.7824674685648559,0.3138843193132691,0.8205200113740722,-2.996676123398487,1.0270104996447498,26260,9.335619994372621,serve,serves_watch-right
1940,1761597289897585920,33.12858581542969,-4.859264850616455,6.693950176239014,1.8718189001083376,-0.1570796519517898,-0.7644068002700806,0.6253067851066589,-0.2073002308607101,-0.2268500924110412,1.0733628273010254,-0.2957254458688773,-0.470806604690103,0.7687616931497874,0.3160587970903687,0.8701207250182622,-2.8954810130462594,0.9841694087561644,26270,8.480868460553417,serve,serves_watch-right
1950,1761597289907631872,33.13863182067871,-3.62642240524292,6.1728515625,1.7889317274093628,-0.2104844003915786,-0.7867373824119568,0.5802938342094421,-0.2103988081216812,-0.0595762133598327,1.128095626831055,-0.333328123157831,-0.4672301913399804,0.7562029199797901,0.3142380393079602,0.9055056243966368,-2.7936308827716454,0.9363204740165418,26280,7.379384296757988,serve,serves_watch-right
1960,1761597289917676800,33.14867687225342,-2.928658962249756,5.86798095703125,1.548211693763733,-0.2578724324703216,-0.80066978931427,0.5407673120498657,-0.095780462026596,0.005549669265747,1.2347757816314695,-0.3662594156569594,-0.4650689859514597,0.7443752403560621,0.3089826105831216,0.9284123837848688,-2.6966246274115555,0.891295002476541,26290,6.738486720173452,serve,serves_watch-right
1970,1761597289927723008,33.15872287750244,-3.243774175643921,5.795872211456299,1.2508444786071775,-0.299996942281723,-0.8122979402542114,0.5001742243766785,0.008187860250473,-0.2613869309425354,1.1992276906967163,-0.3972870925524706,-0.4635299723127837,0.7315921617950361,0.3034402381530458,0.948081328737804,-2.6013313430745124,0.8472637408505864,26300,6.758610619333517,serve,serves_watch-right
1980,1761597289937768960,33.168768882751465,-3.657068729400635,5.893556594848633,0.6846455931663513,-0.3360283970832824,-0.8258829116821289,0.452772319316864,-0.0233619511127471,-0.4610130190849304,1.0017107725143433,-0.4282618570531435,-0.4619106908541845,0.7162574085082231,0.3003427503160774,0.9717662749775224,-2.5031296310956828,0.7999181541174939,26310,6.969713094273385,serve,serves_watch-right
1990,1761597289947814912,33.17881488800049,-3.683006525039673,6.195634365081787,0.3809957802295685,-0.3661586046218872,-0.8397766947746277,0.4008776545524597,-0.2192753553390503,-0.49220871925354,1.0556957721710205,-0.4591399081938248,-0.4614949032922172,0.6981842785449952,0.2979121959436873,0.996871765958654,-2.4014275167068124,0.751931883526558,26320,7.217726791297932,serve,serves_watch-right
2000,1761597289957860864,33.18886089324951,-3.909390449523926,6.523680210113525,0.3705572485923767,-0.3931751549243927,-0.8525650501251221,0.3443058133125305,-0.5210857391357422,-0.603108286857605,1.1599971055984497,-0.4906215916224652,-0.4609236700260732,0.67801347822389,0.2951909136940989,1.0208738606961247,-2.290026014588653,0.696724691229164,26330,7.614397536584236,serve,serves_watch-right
2010,1761597289967907072,33.198906898498535,-3.765808582305908,6.958676338195801,0.2531152367591858,-0.4172194898128509,-0.8634387254714966,0.2835519909858703,-0.6639725565910339,-0.6059980392456055,1.2076284885406494,-0.522751766735667,-0.460266596510566,0.6556909726882679,0.2914699274912303,1.042047200143124,-2.167715184403563,0.634069070384282,26340,7.916347515200088,serve,serves_watch-right
2020,1761597289977953024,33.20895290374756,-3.4665725231170654,7.4368181228637695,0.0072668408975005,-0.4366302192211151,-0.8720146417617798,0.221233457326889,-0.7412566542625427,-0.6256048083305359,1.2382696866989136,-0.5547047545168892,-0.4608809528107442,0.6310352420407742,0.2858072941525808,1.0593032758714398,-2.0397766655128557,0.5710875535857408,26350,8.205086328464914,serve,serves_watch-right
2030,1761597289987998976,33.21899890899658,-3.460413932800293,7.976739406585693,-0.2202857136726379,-0.4503398239612579,-0.8790170550346375,0.1565975844860077,-0.8006977438926697,-0.7503620982170105,1.2214999198913574,-0.5865816691116379,-0.462586556925731,0.6035830253504217,0.2786091108506087,1.0737966668704737,-1.9054492619767145,0.5071345057273827,26360,8.697779138524025,serve,serves_watch-right
2040,1761597289998044928,33.229044914245605,-3.596507787704468,8.580477714538574,-0.4415070414543152,-0.4575328826904297,-0.8848707675933838,0.0875639393925666,-0.8996601104736328,-0.7770402431488037,1.2754578590393066,-0.618955431875503,-0.4646703691717675,0.5725935884351464,0.27039269091172,1.086216459517513,-1.7598925864743442,0.4376151176269525,26370,9.314203913613108,serve,serves_watch-right
2050,1761597290008090880,33.23909091949463,-3.894930601119995,9.17619514465332,-0.6061091423034668,-0.4574363231658935,-0.8891426920890808,0.0133255831897258,-1.041877031326294,-0.8530754446983337,1.37952721118927,-0.6519034362210702,-0.4662485771116663,0.5378429658894367,0.2614560731367487,1.095468440374758,-1.599919103873456,0.3586869269090186,26380,9.987012066313126,serve,serves_watch-right
2060,1761597290018136064,33.249135971069336,-3.7677838802337646,9.825664520263672,-1.0020726919174194,-0.4478913247585296,-0.8917572498321533,-0.0645172744989395,-1.188217043876648,-0.9766967296600342,1.4708435535430908,-0.6848178180407503,-0.4678354960817892,0.4988700345607249,0.2515615733044326,1.1012136904091518,-1.4277336805976413,0.2735116835790759,26390,10.570904801047277,serve,serves_watch-right
2070,1761597290028182016,33.25918197631836,-3.2481396198272705,10.420905113220217,-1.5030250549316406,-0.426210343837738,-0.8936282396316528,-0.1406174451112747,-1.3656291961669922,-1.0796382427215576,1.5537186861038208,-0.7159590536183337,-0.4711588304311162,0.4557418479699562,0.240231780088992,1.105365324811456,-1.2521164076103422,0.1915884794133993,26400,11.018382761747896,serve,serves_watch-right
2080,1761597290038227968,33.26922798156738,-2.8218679428100586,10.877981185913086,-2.066516160964966,-0.3912705481052398,-0.8956257700920105,-0.21157006919384,-1.5574750900268557,-1.1821634769439695,1.5176767110824585,-0.7442630473452694,-0.4766377509209109,0.4086947778824671,0.2277225280606702,1.1098359929481802,-1.0751013087883845,0.1140665226192073,26410,11.426456249041848,serve,serves_watch-right
2090,1761597290048273920,33.279273986816406,-2.6647512912750244,11.38670539855957,-2.687739610671997,-0.3425933420658111,-0.8975992798805237,-0.2773901522159576,-1.733181715011597,-1.170149803161621,1.4995124340057373,-0.7696658528128042,-0.4831152136616147,0.3576375363311513,0.2151965449295849,1.1142928462969608,-0.8901821938387907,0.0324489905218421,26420,11.999245955172052,serve,serves_watch-right
2100,1761597290058319872,33.28931975364685,-2.270735502243042,11.869208335876465,-3.474065065383911,-0.2787837088108063,-0.8995529413223267,-0.3362798690795898,-1.9534245729446411,-1.2166885137557983,1.5739355087280271,-0.7917949436643912,-0.4906712564463374,0.3018307302421557,0.2029794607854768,1.1187449208988862,-0.6921890433345598,-0.0578074077746059,26430,12.573920403760605,serve,serves_watch-right
2110,1761597290068365824,33.299365758895874,-1.5466914176940918,12.125965118408203,-4.264458656311035,-0.200369045138359,-0.9018429517745972,-0.3827942609786987,-2.25943922996521,-1.3562746047973633,1.6652802228927612,-0.8092007815422729,-0.5000337841494589,0.2420104960279692,0.1912882005526067,1.1240161916395712,-0.4822216610945557,-0.1569966568026274,26440,12.946694250881464,serve,serves_watch-right
2120,1761597290078411776,33.3094117641449,0.1082851216197013,12.33078956604004,-5.429982662200928,-0.1077322587370872,-0.9061119556427002,-0.4090902805328369,-2.6021828651428223,-1.3540198802947998,1.7635672092437744,-0.8196700567785272,-0.5132642322506632,0.178926501246016,0.1807929753534731,1.1340008629728913,-0.2574995587495332,-0.2696824269024766,26450,13.473856489562625,serve,serves_watch-right
2130,1761597290088457728,33.31945776939392,2.0869903564453125,12.301161766052246,-6.7815632820129395,-0.0011318703182041,-0.9141388535499572,-0.4053996205329895,-2.910062074661255,-1.1802672147750854,1.9482158422470093,-0.8202900693939683,-0.533416670452168,0.1129904601089449,0.1726961722371498,1.1533785788524504,-0.0027919794006784,-0.4131846044509826,26460,14.200834837798356,serve,serves_watch-right
2140,1761597290098503936,33.329503774642944,3.3784608840942383,11.692299842834473,-8.506634712219238,0.11610147356987,-0.9203606247901917,-0.3734393119812011,-3.1497318744659424,-1.0233802795410156,2.075404644012451,-0.8110910466092195,-0.5578817096675992,0.0452585725835638,0.1698560044012447,1.1690015711273896,0.3014245660145851,-0.6131471831867752,26470,14.848794822719961,serve,serves_watch-right
2150,1761597290108548864,33.33954882621765,5.152293682098389,10.859167098999023,-10.508546829223633,0.2434672117233276,-0.9177446365356444,-0.313797116279602,-3.245237112045288,-0.711939811706543,2.302459716796875,-0.7912398967370664,-0.5852583942710643,-0.0239595283820211,0.1756076809925132,1.16236411001674,0.6598562571525458,-0.8793103175579968,26480,15.965500203017752,serve,serves_watch-right
2160,1761597290118594816,33.349594831466675,6.406235694885254,9.165425300598145,-12.426655769348145,0.3756689727306366,-0.897899329662323,-0.2294551432132721,-3.349149227142334,-0.5621073842048645,2.695488929748535,-0.7602746343074497,-0.6137903872339869,-0.0923785271771806,0.1915986928434773,1.1149739350567291,1.0224802047731527,-1.166648424429109,26490,16.71725606459206,serve,serves_watch-right
2170,1761597290128640768,33.3596408367157,7.489628791809082,6.745519638061523,-14.751861572265623,0.509955644607544,-0.8498706817626953,-0.1329089105129242,-3.4193644523620605,-0.2271555662155151,2.8916521072387695,-0.719346668619103,-0.6392651756016934,-0.1577516439345812,0.2213474395317742,1.015739897604481,1.3158397836508544,-1.4093902775677127,26500,17.866560790310384,serve,serves_watch-right
2180,1761597290138686976,33.36968684196472,7.936567306518555,4.0911126136779785,-16.72946548461914,0.6431412100791931,-0.7647626399993896,-0.0388265922665596,-3.469648838043213,0.4896161556243896,3.1355061531066895,-0.669703474072599,-0.6578831431575691,-0.2185783023857258,0.266290398181783,0.8706728672922397,1.5104992660337009,-1.5823462842611875,26510,18.963156868774707,serve,serves_watch-right
2190,1761597290148732928,33.379732847213745,7.871201992034912,1.3308074474334717,-17.66275405883789,0.765526533126831,-0.6423894166946411,0.0361272469162941,-3.4897236824035645,0.6928043961524963,3.556386947631836,-0.6147145765329263,-0.6658918511983729,-0.2732245697553128,0.3225871356120267,0.6976119778027524,1.6179540144924125,-1.695008350938007,26520,19.382975783004866,serve,serves_watch-right
2200,1761597290158778880,33.38977885246277,9.411334991455078,-1.8233389854431152,-18.187915802001953,0.868002712726593,-0.4895256757736206,0.0832812786102294,-3.5196447372436523,0.5812462568283081,3.254746675491333,-0.5543129648947206,-0.6640563982099517,-0.3172849471531048,0.3887112539303833,0.511545720892818,1.666449399155776,-1.7835643747136969,26530,20.55962238461436,serve,serves_watch-right
2210,1761597290168824832,33.39982485771179,9.816557884216309,-6.216729640960693,-18.1478328704834,0.9453476667404176,-0.3143820762634277,0.086498349905014,-3.986057996749878,1.0529379844665527,2.2908668518066406,-0.4896284392673618,-0.6505945111693954,-0.3463754578299119,0.4658486431839879,0.3198056555852825,1.6620412389518389,-1.8708404199829831,26540,21.548929765024674,serve,serves_watch-right
2220,1761597290178871040,33.409870862960815,9.63779640197754,-10.02079963684082,-17.719141006469727,0.9906508326530457,-0.1335356682538986,0.0279125496745109,-4.6739702224731445,1.7926390171051023,1.610240459442139,-0.4276444801914834,-0.6198633199448405,-0.3601745956035094,0.5506032186873895,0.1339357530204543,1.5989648454860947,-1.9586213155323853,26550,22.52268862402616,serve,serves_watch-right
2230,1761597290188916992,33.41991686820984,9.408820152282717,-12.495804786682127,-16.643695831298828,0.9961256980895996,0.0359720773994922,-0.0802464112639427,-5.021623134613037,1.6730122566223145,1.4519200325012207,-0.3680786583545685,-0.5743219165781915,-0.3605982974457089,0.6361141499459483,-0.0359798403091907,1.490411399290993,-2.059268779392927,26560,22.84039502394088,serve,serves_watch-right
2240,1761597290198962944,33.42996287345886,8.749147415161133,-13.334256172180176,-14.775071144104004,0.959410548210144,0.1778356283903122,-0.2188737392425537,-6.264327049255371,1.4668481349945068,1.2411057949066162,-0.3131619796836281,-0.5171840963515788,-0.3508329204750947,0.7150988295008252,-0.1787865843807321,1.3465013249210402,-2.173321796772802,26570,21.740577165081902,serve,serves_watch-right
2250,1761597290209007872,33.44000792503357,9.087462425231934,-12.041690826416016,-11.560369491577148,0.8920750617980957,0.2755560874938965,-0.3581494987010956,-7.959595203399658,1.9488701820373535,0.8025159239768982,-0.2638040005965177,-0.4592603998461574,-0.3316702226333963,0.7806934579044617,-0.2791681347275591,1.1890155026720102,-2.3004514491344943,26580,19.005957857229443,serve,serves_watch-right
2260,1761597290219054080,33.45005393028259,9.894173622131348,-10.871759414672852,-8.155200958251953,0.8140984773635864,0.3196855783462524,-0.4848141372203827,-9.019634246826172,1.65207040309906,-0.0486483871936798,-0.221241953071004,-0.4089441608083615,-0.300595422352571,0.8327418487010982,-0.3253976203020519,1.033675451687541,-2.436175423972809,26590,16.81062542277595,serve,serves_watch-right
2270,1761597290229100032,33.460099935531616,9.856973648071287,-10.282179832458496,-5.033309459686279,0.7350529432296753,0.3168245553970337,-0.5994325280189514,-8.79044246673584,2.2050719261169434,-1.1775298118591309,-0.188702682612904,-0.3643467280971565,-0.2598753572832178,0.8741324517372004,-0.3223796927375406,0.8866779472566821,-2.5622482688224655,26600,15.106864523214451,serve,serves_watch-right
2280,1761597290239145984,33.47014594078064,9.771210670471191,-8.821394920349121,-2.6161396503448486,0.6605826020240784,0.279664933681488,-0.6967195868492126,-6.774428367614746,2.944608688354492,-1.48777437210083,-0.1662143160291476,-0.3253135055286829,-0.2140357849081835,0.905943004072867,-0.283445085596123,0.7587803150149881,-2.6650352692206805,26610,13.42154063353376,serve,serves_watch-right
2290,1761597290249191936,33.48019194602966,8.380699157714844,-9.706212043762209,-0.224709928035736,0.5908188819885254,0.2204829305410385,-0.7760930061340332,-4.826216220855713,2.902167320251465,-1.3724207878112793,-0.154899628630184,-0.2899845732009078,-0.1669204650139616,0.929544303593542,-0.2223095565701039,0.6506770375951316,-2.7360810812191874,26620,12.825644824427139,serve,serves_watch-right
2300,1761597290259237888,33.49023795127869,8.300115585327148,-9.574909210205078,1.7184791564941406,0.5111680030822754,0.148910716176033,-0.8464826345443726,-3.893080234527588,3.272918462753296,-3.1953721046447754,-0.1556888069460618,-0.2499259615874994,-0.1195645793670256,0.9481573212898496,-0.1494666124102281,0.5432624087633814,-2.7743940455161855,26630,12.787649343204773,serve,serves_watch-right
2310,1761597290269284096,33.50028395652771,9.417412757873535,-9.987848281860352,1.6374802589416504,0.4292629361152649,0.0649669617414474,-0.9008399248123168,-2.4637019634246826,2.581242799758911,-1.855172038078308,-0.1591835289909097,-0.2117633316600245,-0.0688209121739066,0.9618110836889372,-0.0650127514463082,0.4446829935413567,-2.7988553597059953,26640,13.824836995496316,serve,serves_watch-right
2320,1761597290279330048,33.51032996177673,13.642973899841309,-11.35567855834961,2.241252899169922,0.3285608291625976,-0.0480758436024189,-0.9432584643363952,-0.7455377578735352,2.391749620437622,1.2932188510894775,-0.1585182150905317,-0.1684140862480755,-0.0027328853435208,0.972882975904726,0.0480943842450584,0.3351821366232438,-2.8266962829204,26650,17.891489231205707,serve,serves_watch-right
2330,1761597290289376000,33.52037596702576,15.068594932556152,-9.797932624816896,4.071262359619141,0.2213608175516128,-0.1964601725339889,-0.9551977515220642,-0.5947128534317017,3.510852336883545,0.7276129722595215,-0.1616895453059662,-0.1266810970060419,0.0797057892189739,0.9754257172188164,0.1977464214639085,0.227723598115846,-2.835740504105361,26660,18.42924887679256,serve,serves_watch-right
2340,1761597290299420928,33.530420780181885,15.475106239318848,-7.9206461906433105,4.521396636962891,0.1264728605747223,-0.3478589653968811,-0.9289772510528564,-1.1678088903427124,1.9960675239562988,0.7603065967559814,-0.1690128821958737,-0.0939080345858197,0.1633788669282108,0.9674312249983172,0.3552864821130372,0.1353101618816364,-2.8200071297797185,26670,17.962699595113673,serve,serves_watch-right
2350,1761597290309466880,33.54046678543091,16.425867080688477,-7.098388671875,5.822029113769531,0.0363098829984664,-0.4968231916427612,-0.8670918345451355,-2.5925233364105225,1.5842560529708862,1.3205831050872805,-0.1793391914344526,-0.0661847030960922,0.249145852439853,0.9494120992830836,0.519934386202586,0.0418510247864583,-2.779335500300798,26680,18.81733918733009,serve,serves_watch-right
2360,1761597290319512832,33.55051279067993,15.556238174438477,-5.647791385650635,7.942348480224609,-0.0566296763718128,-0.6289449334144592,-0.7753846645355225,-2.849116802215576,1.8035054206848145,0.729745626449585,-0.1979235989033554,-0.0407340360917835,0.3326385684080242,0.921150670347734,0.68019538053211,-0.0729048604857781,-2.692490089831464,26690,18.356878630557336,serve,serves_watch-right
2370,1761597290329558784,33.560558795928955,14.049642562866213,-4.257279396057129,9.190081596374512,-0.1520335078239441,-0.7277088761329651,-0.6688240766525269,-2.605565309524536,1.565568923950195,0.1043099164962768,-0.2261717675029925,-0.0179975070695927,0.4065268209456936,0.885018896238648,0.8149756430167041,-0.2235164684637408,-2.5443826815475328,26700,17.319771469289538,serve,serves_watch-right
2380,1761597290339604736,33.57060480117798,11.578085899353027,-2.097992181777954,9.95040798187256,-0.2456017583608627,-0.7884858250617981,-0.5638881921768188,-2.8741188049316406,1.303988695144653,-0.1230930089950561,-0.2606747202556113,0.0012727822582653,0.4669628320428722,0.8449809178638723,0.9083431966317648,-0.4107729436357827,-2.3404085792201985,26710,15.409875511934287,serve,serves_watch-right
2390,1761597290349650944,33.580650806427,9.033442497253418,-0.107773557305336,9.884859085083008,-0.3315325379371643,-0.81321781873703,-0.4782917201519012,-3.405940055847168,0.63957279920578,-0.7008007168769836,-0.301534228601416,0.0146868444501486,0.5105276113965013,0.8051229719828195,0.949660270435658,-0.6061203812983121,-2.106137087012365,26720,13.391233610940644,serve,serves_watch-right
2400,1761597290359696896,33.590696811676025,6.381450653076172,1.3319742679595947,10.21972370147705,-0.4102751314640045,-0.8110326528549194,-0.4170138537883758,-3.9114718437194824,0.0633366107940673,-0.7821133732795715,-0.3438115687446316,0.025671030526945,0.5392903338760523,0.7683103069040929,0.9459151711872724,-0.7772527961439072,-1.8870126930962632,26730,12.12187363499078,serve,serves_watch-right
2410,1761597290369742848,33.60074281692505,3.8841428756713863,2.7244181632995605,10.010937690734863,-0.4838611185550689,-0.7853221893310547,-0.3861960768699646,-4.2562971115112305,-0.1566638350486755,-1.0088844299316406,-0.3899007139298757,0.0358679741583435,0.5528249745848004,0.7355782957776968,0.9032164116885508,-0.8971815153668157,-1.7080800555402684,26740,11.078262212771515,serve,serves_watch-right
2420,1761597290379788800,33.61078882217407,2.0648324489593506,2.989011764526367,9.693807601928713,-0.5485355257987976,-0.7456700801849365,-0.3782654404640198,-3.99652361869812,-0.6336938738822937,-1.127609133720398,-0.4346341401554257,0.0463387362672878,0.5556257748222307,0.70726638876724,0.8415399213937744,-0.9670901372712364,-1.5779192123727206,26750,10.352179973028067,serve,serves_watch-right
2430,1761597290389833984,33.62083387374878,0.8935559391975403,3.493590831756592,9.70996379852295,-0.6062586307525635,-0.6951443552970886,-0.3862963318824768,-3.685580968856811,-0.3883822560310364,-1.1926679611206057,-0.4780819203665172,0.0583520240885884,0.5508601216608251,0.6816053933076341,0.7686207024065266,-1.0034857301519435,-1.481624214296103,26760,10.357944587843436,serve,serves_watch-right
2440,1761597290399879936,33.6308798789978,0.3879449963569641,3.6046319007873535,9.386760711669922,-0.6562278270721436,-0.6363857388496399,-0.4054356217384338,-3.263861894607544,-0.5598574280738831,-1.1115015745162964,-0.5206258259596296,0.0710324456379023,0.5405891095837724,0.65701325137216,0.6898036888011942,-1.0173713769758617,-1.405958624622352,26770,10.062561757252587,serve,serves_watch-right
2450,1761597290409925888,33.640925884246826,0.4399975538253784,3.524699449539185,8.752527236938477,-0.6966623663902283,-0.5764398574829102,-0.4270583391189575,-3.143517017364502,-0.5965796113014221,-0.85789954662323,-0.5596105598325943,0.0828468337407056,0.5287790008103368,0.6327442648633397,0.614365097176053,-1.0208682871942798,-1.3417354794194185,26780,9.445837024335326,serve,serves_watch-right
2460,1761597290419971840,33.65097188949585,0.4247413575649261,3.8593862056732178,8.621010780334473,-0.7279780507087708,-0.5163361430168152,-0.4510487616062164,-3.1145360469818115,-0.1380522847175598,-0.872346043586731,-0.5966950495271836,0.0926260459463007,0.5156510809576375,0.6078482039358878,0.5425671485477388,-1.0160959780459489,-1.282018996208455,26790,9.455003647805219,serve,serves_watch-right
2470,1761597290430018048,33.66101789474487,0.6439815759658813,3.980396270751953,8.16621208190918,-0.750768780708313,-0.4560021162033081,-0.4779208302497864,-3.0246524810791016,-0.6886512041091919,-1.0119168758392334,-0.6323141774405969,0.1007351237465531,0.5008912269128967,0.582356596220193,0.4734979011279921,-1.0039164987877025,-1.2252725726097362,26800,9.107430291202839,serve,serves_watch-right
2480,1761597290440064000,33.6710638999939,1.018952250480652,4.059268951416016,7.552335739135742,-0.7647141814231873,-0.4004084467887878,-0.5048617124557495,-3.0819196701049805,-0.7012150883674622,-1.0923062562942505,-0.6652301820916592,0.1058849269082701,0.4861661632654275,0.5566863738122936,0.4119625542815041,-0.9872864120490642,-1.1696835510603911,26810,8.634448634702547,serve,serves_watch-right
2490,1761597290450109952,33.68110990524292,1.008223056793213,4.313471794128418,7.158181190490723,-0.770563006401062,-0.3490834534168243,-0.5332667231559753,-3.1099910736083984,-0.4078592956066131,-1.1834843158721924,-0.6958835627703234,0.1086249479470347,0.470709307925978,0.5313938879281878,0.3565928638869866,-0.9654271065147496,-1.1160032098419326,26820,8.417963566497901,serve,serves_watch-right
2500,1761597290460155904,33.69115591049194,0.4629054367542267,4.665268898010254,6.643789768218994,-0.768388569355011,-0.2997718453407287,-0.5654342770576477,-3.0391218662261963,-0.5586419105529785,-1.151026964187622,-0.7247928350655991,0.1102319116146937,0.452914753398779,0.5073387932509237,0.3044534961943929,-0.9363997555630654,-1.0665687749707304,26830,8.131356456238395,serve,serves_watch-right
2510,1761597290470201856,33.70120191574097,-0.1818666905164718,5.230339527130127,6.450406074523926,-0.7573460340499878,-0.2505991756916046,-0.6030150651931763,-2.978081703186035,-0.7678639888763428,-1.1298950910568235,-0.7520540800914969,0.111909578378197,0.4312408983705714,0.4857183931006469,0.2532991168399388,-0.8983637022897298,-1.0243075909197044,26840,8.306459269052873,serve,serves_watch-right
2520,1761597290480248064,33.71124792098999,-0.4984840452671051,5.594131946563721,6.269829750061035,-0.7376548647880554,-0.2002306133508682,-0.6448046565055847,-2.8894965648651123,-1.226527214050293,-1.2211315631866455,-0.778593356964099,0.1137444154217438,0.4057830340716207,0.4649675809330112,0.2015933009718576,-0.852460502185582,-0.9849170599507184,26850,8.417455890808165,serve,serves_watch-right
2530,1761597290490292992,33.7212929725647,-0.3635172247886657,5.6547698974609375,5.689883708953857,-0.7105340957641602,-0.1534720808267593,-0.6867223978042603,-2.7473974227905273,-1.4015053510665894,-1.2162774801254272,-0.8030319891209073,0.1146153671635221,0.3788167418007395,0.4455342839330926,0.154081027744042,-0.8024382579429351,-0.9475928330572108,26860,8.030152177098946,serve,serves_watch-right
2540,1761597290500338944,33.73133897781372,0.0217263270169496,5.743084907531738,5.222564220428467,-0.6773537993431091,-0.1143184676766395,-0.7267208099365234,-2.6027212142944336,-1.1216434240341189,-1.1718387603759766,-0.8253692522287549,0.1127652827244005,0.3520278021704157,0.4267623981599197,0.1145689389900973,-0.750252813538739,-0.9092430344221386,26870,7.762646025995522,serve,serves_watch-right
2550,1761597290510385152,33.741384983062744,0.1520756185054779,5.864245414733887,4.979536533355713,-0.6371285319328308,-0.0800399556756019,-0.766590416431427,-2.4976675510406494,-1.2319259643554688,-1.0655782222747805,-0.8464207883847069,0.1089757323127613,0.3237731857295893,0.408493690748494,0.0801256652668031,-0.6934305252394383,-0.8703193531983497,26880,7.694692025350688,serve,serves_watch-right
2560,1761597290520431104,33.75143098831177,0.0405078046023845,5.94686222076416,4.389589309692383,-0.593591034412384,-0.0517960041761398,-0.8030983209609985,-2.4881045818328857,-1.4546127319335938,-0.989977240562439,-0.865157542432334,0.1039387909250071,0.2960533316509069,0.3912181309365833,0.0518191922420017,-0.6365054982703301,-0.8322768804238512,26890,7.391569891623254,serve,serves_watch-right
2570,1761597290530476800,33.76147675514221,-0.1028572767972946,6.078115940093994,3.901031255722046,-0.5456123352050781,-0.0278326887637376,-0.8375754356384277,-2.47005844116211,-1.4124139547348022,-0.9640450477600098,-0.8815113752056278,0.0984279685006737,0.2674401336329922,0.3764645080763286,0.02783628367768,-0.5773719214738531,-0.7989731132871325,26900,7.223026918040329,serve,serves_watch-right
2580,1761597290540522752,33.771522760391235,-0.2403482943773269,6.108834266662598,3.5839385986328125,-0.4938763380050659,-0.0068110171705484,-0.8695054650306702,-2.338383674621582,-1.5008336305618286,-0.8328413367271423,-0.8960839108771789,0.0926371458374035,0.2380454310239494,0.3630238318100145,0.0068110698229634,-0.5165552829643758,-0.768029789467989,26910,7.0866239690653385,serve,serves_watch-right
2590,1761597290550568704,33.78156876564026,-0.4476895928382873,5.992506504058838,3.403036594390869,-0.4398732185363769,0.0124379703775048,-0.8979737162590027,-2.209632396697998,-1.5590535402297974,-0.6787322163581848,-0.9087924666919998,0.0872641801310768,0.2083221008151588,0.3508319293260067,-0.0124382906509651,-0.4554954076864886,-0.7397145654191957,26920,6.905882871544129,serve,serves_watch-right
2600,1761597290560614912,33.79161477088928,-0.6030815839767456,5.971441745758057,3.28475022315979,-0.3843323588371277,0.0310427639633417,-0.9226727485656738,-2.152517557144165,-1.4994571208953855,-0.5640215873718262,-0.9201992213145668,0.0825179026785809,0.1784780882699252,0.3384814823136849,-0.0310477517287689,-0.3946852717080353,-0.7111568486167097,26930,6.84188628584707,serve,serves_watch-right
2610,1761597290570660864,33.801660776138306,-0.6745764017105103,5.837518692016602,3.2014973163604736,-0.327547013759613,0.0487562865018844,-0.9435760378837584,-2.069547653198242,-1.4217420816421509,-0.5373046398162842,-0.9301541375282152,0.0783578559242765,0.1485665585853029,0.3264983774675672,-0.0487756248789852,-0.3341190244024495,-0.6833847544712425,26940,6.691880368629675,serve,serves_watch-right
2620,1761597290580706816,33.81170678138733,-0.5939574837684631,5.5322442054748535,3.22090482711792,-0.2712484896183014,0.0645231679081916,-0.9603441953659058,-2.004065752029419,-1.2666869163513184,-0.5475903749465942,-0.93892212568984,0.074351646211207,0.1195814623419447,0.3140020162993044,-0.0645680258314629,-0.2752784373857175,-0.6544178244676987,26950,6.429054312018694,serve,serves_watch-right
2630,1761597290590752000,33.821751832962036,-0.4730690121650696,5.204836368560791,3.255070924758911,-0.2167779952287674,0.0776358842849731,-0.9731289744377136,-1.952808141708374,-1.0446768999099731,-0.4726870656013489,-0.94652249021402,0.0703225201700851,0.0921426343921703,0.3010973508845063,-0.0777140894065016,-0.2191850728036342,-0.624528743600867,26960,6.157077442989876,serve,serves_watch-right
2640,1761597290600797952,33.83179783821106,-0.3415173590183258,4.872534275054932,3.2125561237335205,-0.1645875573158264,0.0879079475998878,-0.9824373126029968,-1.8245633840560913,-0.9082052111625672,-0.3990781307220459,-0.953180180546564,0.066137708757949,0.06638624727286,0.2875170955561264,-0.0880215625018383,-0.1659883880773264,-0.5932477922914194,26970,5.8462587366822625,serve,serves_watch-right
2650,1761597290610843904,33.84184384346008,-0.1847003102302551,4.517520904541016,3.1622579097747803,-0.1150974258780479,0.0949129834771156,-0.9888094663619996,-1.6839443445205688,-0.7981142997741699,-0.3064481019973755,-0.95881650659958,0.0616151334286243,0.0424129142370097,0.2739994088636613,-0.0950560714639818,-0.1158785389956596,-0.5622170979789151,26980,5.517425524236589,serve,serves_watch-right
2660,1761597290620889856,33.851889848709106,0.0048049013130366,4.095621109008789,2.9136393070220947,-0.0692142248153686,0.0987477973103523,-0.9927024841308594,-1.5199581384658811,-0.6843343377113342,-0.2215461134910583,-0.9635576182295376,0.0568001667341955,0.0205545141444379,0.2605917025782427,-0.0989089871077802,-0.069610371936923,-0.531704449641562,26990,5.026273904898061,serve,serves_watch-right
2670,1761597290630935808,33.86193585395813,0.0937099754810333,3.713156223297119,2.695756435394287,-0.027554165571928,0.0994757562875747,-0.9946584105491638,-1.369571089744568,-0.5227698087692261,-0.1783609986305236,-0.9672851106616956,0.0516705558883822,0.0009754694575194,0.2483721252909712,-0.0996405539580136,-0.0276950563318354,-0.5040659353605925,27000,4.589489454948611,serve,serves_watch-right
2680,1761597290640982016,33.87198185920715,0.1736740469932556,3.4876747131347656,2.464840888977051,0.0109996618703007,0.0983775183558464,-0.9950883984565736,-1.2472057342529297,-0.427387535572052,-0.1158124804496765,-0.9703041067015992,0.0465402199361824,-0.0170241312343732,0.2367576619418056,-0.0985369003615418,0.0110535042813245,-0.4781090864533242,27010,4.274281014066794,serve,serves_watch-right
2690,1761597290651027968,33.88202786445618,0.2852864563465118,3.2660071849823,2.0879552364349365,0.0469944104552269,0.0954427346587181,-0.9943249821662904,-1.1506626605987549,-0.2873220145702362,-0.1177355051040649,-0.9725012277604548,0.0411985976332062,-0.0337664678503294,0.2267243618660604,-0.0955882355399138,0.0472274826926037,-0.4558289241155476,27020,3.8868687093709284,serve,serves_watch-right
2700,1761597290661073920,33.8920738697052,0.3305580615997314,2.958240509033203,1.6708922386169434,0.0798389688134193,0.0910408347845077,-0.9926415681838988,-1.081578493118286,-0.0997230857610702,-0.1315496563911438,-0.9740273758286192,0.0357610730618691,-0.048993421857988,0.2181548362645278,-0.0911670678599599,0.0802580411879227,-0.4370085660296163,27030,3.4135518766299624,serve,serves_watch-right
2710,1761597290671119872,33.902119874954224,0.19511578977108,2.746026039123535,1.30588960647583,0.1094208434224128,0.0870432704687118,-0.990177035331726,-0.9721222519874572,0.0135121494531631,-0.1206780672073364,-0.9748648420889788,0.0310094373673976,-0.0628482360097386,0.2114876493538762,-0.087153562713474,0.1100597917129654,-0.4224563887734308,27040,3.046978313553295,serve,serves_watch-right
2720,1761597290681165824,33.91216588020325,0.1984966695308685,2.6971261501312256,0.9594137072563172,0.137366846203804,0.083749383687973,-0.9869733452796936,-0.8336864113807678,-0.015664666891098,-0.1042894721031189,-0.975165675750698,0.0268437231422969,-0.0761100515780238,0.2062489092352055,-0.08384759784496,0.1382915065793512,-0.4110491576362055,27050,2.869558338700896,serve,serves_watch-right
2730,1761597290691211008,33.922210931777954,0.2695328593254089,2.6617486476898193,0.6438448429107666,0.164599522948265,0.0802690684795379,-0.9830889701843262,-0.7600585222244263,-0.0776292979717254,-0.0060162544250488,-0.9749188298119608,0.0226391011923137,-0.0891234981536466,0.2026765973371951,-0.0803555149115844,0.1658922169444817,-0.4032582840180017,27060,2.7517430852965727,serve,serves_watch-right
2740,1761597290701256960,33.93225693702698,0.5549360513687134,2.5661845207214355,0.2368946224451065,0.1907135546207428,0.0755860283970832,-0.9787313938140868,-0.7558838129043579,0.0361693426966667,0.0885946750640869,-0.97416343075094,0.0178467007690195,-0.1015667810434416,0.2009260395891884,-0.075658187926051,0.1924463937900917,-0.3994992067523269,27070,2.6361669290169036,serve,serves_watch-right
2750,1761597290711302912,33.942302942276,1.031646490097046,2.4401350021362305,-0.2013158500194549,0.2152683138847351,0.067787691950798,-0.97419935464859,-0.7322360873222351,0.2460245639085769,0.1294422745704651,-0.972857782814463,0.0114208998628275,-0.11300392069543,0.2016119042275366,-0.0678397175702255,0.2174748244392645,-0.4012796639161236,27080,2.656893182017108,serve,serves_watch-right
2760,1761597290721349120,33.952348947525024,1.4199014902114868,2.316676139831543,-0.6358206868171692,0.2383006513118744,0.0565927065908908,-0.9695411920547484,-0.6751292943954468,0.3678152561187744,0.1609169244766235,-0.9710852298119094,0.0031766757584434,-0.1233666371022634,0.2043626361778099,-0.0566229603586943,0.2410096086861398,-0.4079835048539829,27090,2.7905871290024677,serve,serves_watch-right
2770,1761597290731395072,33.96239495277405,1.6487271785736084,2.175809860229492,-1.048907995223999,0.2597234845161438,0.0437194034457206,-0.9646928906440736,-0.6134070158004761,0.4286316633224487,0.1599748730659485,-0.9687521257344176,-0.0061300344698116,-0.1327252451320902,0.2094415825563337,-0.0437333423611926,0.2629932752262371,-0.4200554739107181,27100,2.9244927491248807,serve,serves_watch-right
2780,1761597290741441024,33.97244095802307,1.5846619606018066,2.1777710914611816,-1.3671916723251345,0.2801298201084137,0.0312535837292671,-0.9594532251358032,-0.5908750295639038,0.395488977432251,0.1374622583389282,-0.9658961920259412,-0.0155119498078852,-0.1415371484634586,0.2162663693412927,-0.03125867420051,0.2840719596665289,-0.4360684409655626,27110,3.0204392933905466,serve,serves_watch-right
2790,1761597290751486976,33.982486963272095,1.3178123235702517,2.3762383460998535,-1.652624011039734,0.3015004694461822,0.0216515082865953,-0.9532201886177064,-0.6223164796829224,0.3005836009979248,0.1712988018989563,-0.9624156962976812,-0.0239737987753226,-0.1510469356710349,0.2244237121277837,-0.0216531995524513,0.3063401021888365,-0.4548450638944306,27120,3.1802993757654408,serve,serves_watch-right
2800,1761597290761532928,33.99253296852112,1.1575661897659302,2.638134241104126,-1.9032918214797976,0.3250851929187774,0.0155885154381394,-0.9455562829971312,-0.6974301338195801,0.2780821323394775,0.2592006921768188,-0.9582354570807536,-0.0313526338953796,-0.1619842117433521,0.2335873524716034,-0.0155891467924371,0.3311435797714831,-0.4756048590259526,27130,3.4528584557562074,serve,serves_watch-right
2810,1761597290771579136,34.00257897377014,1.2549479007720947,2.805546283721924,-2.1149771213531494,0.3507125079631805,0.0111125949770212,-0.9364172220230104,-0.7743880748748779,0.3337207734584808,0.29838627576828,-0.9532906443778996,-0.0386875765768354,-0.1740535862905001,0.2438145817066702,-0.011112823791237,0.358354948211342,-0.4987740199472608,27140,3.7308326694727865,serve,serves_watch-right
2820,1761597290781624576,34.01262450218201,1.5258893966674805,2.7607693672180176,-2.2977285385131836,0.3766212463378906,0.0062798052094876,-0.9263460636138916,-0.8222846984863281,0.4461585283279419,0.2693789005279541,-0.9477191019212942,-0.0467566530851819,-0.1861203798452901,0.2549536811342836,-0.0062798466856214,0.3861542792691195,-0.524365159874251,27150,3.9025302544028473,serve,serves_watch-right
2830,1761597290791670528,34.02267050743103,1.7425553798675537,2.6728813648223877,-2.4690396785736084,0.401610791683197,0.0003474330296739,-0.9158104062080384,-0.840270459651947,0.5778080821037292,0.2392967343330383,-0.9415555848138912,-0.055835428645612,-0.1974264732817547,0.2671671904651345,-0.0003474330437354,0.4132750585794815,-0.5528941062382035,27160,4.034470346488001,serve,serves_watch-right
2840,1761597290801716480,34.032716512680054,1.790365219116211,2.755665063858032,-2.638796091079712,0.4263865649700165,-0.0052170027047395,-0.9045259952545166,-0.8041484355926514,0.6239609122276306,0.3195497989654541,-0.9347781150144796,-0.0652683347849262,-0.2085114997079694,0.280094429909043,0.0052170263059928,0.4405006431285811,-0.5834161058291659,27170,4.214539402151354,serve,serves_watch-right
2850,1761597290811762688,34.04276251792908,1.7806026935577393,2.908684253692627,-2.8197021484375,0.4521586000919342,-0.0093072690069675,-0.8918889760971069,-0.7607675790786743,0.5994104146957397,0.4679540395736694,-0.9271853635776888,-0.0747601383963005,-0.220150908557066,0.2937206667277352,0.0093074032953166,0.4692059353248123,-0.6157966801594839,27180,4.42512262495488,serve,serves_watch-right
2860,1761597290821808640,34.0528085231781,1.801239848136902,3.0112757682800293,-2.964836597442627,0.4787406027317047,-0.0116814915090799,-0.8778786659240723,-0.7777060866355896,0.5402001738548279,0.5196480751037598,-0.918769486462738,-0.0842101842309785,-0.2323129494283866,0.307899331591109,0.011681757430759,0.4992569092475764,-0.6496961985665085,27190,4.5937460522630005,serve,serves_watch-right
2870,1761597290831854592,34.062854528427124,1.6369041204452517,3.1097686290740967,-3.053136110305786,0.5058008432388306,-0.0119125004857778,-0.8625680208206177,-0.8189264535903931,0.4743758738040924,0.4816476106643677,-0.9095828513196204,-0.0933692174138843,-0.2449452720682818,0.3224017681364838,0.0119127821424787,0.5303516795736429,-0.684502707461706,27200,4.65529334563969,serve,serves_watch-right
2880,1761597290841900288,34.07290029525757,1.4667845964431765,3.244706869125366,-3.13503098487854,0.5333997011184692,-0.0090685710310935,-0.8458147048950195,-0.8275433778762817,0.4278765618801117,0.4638261795043945,-0.8997312217852551,-0.1017296954448711,-0.2583480399087129,0.3367360460194476,0.009068695740399,0.5626406341811855,-0.7188694139751327,27210,4.744259583439845,serve,serves_watch-right
2890,1761597290851946240,34.08294630050659,1.3907301425933838,3.396167755126953,-3.2485146522521973,0.5614774227142334,-0.0034523983485996,-0.8274849057197571,-0.8229062557220459,0.3918496370315552,0.4937751293182373,-0.8890643831327913,-0.1095673915850414,-0.2724931991912905,0.3511510249273886,0.0034524053167762,0.5961741501036569,-0.7533807809498755,27220,4.9011155053088755,serve,serves_watch-right
2900,1761597290861992448,34.092992305755615,1.4335665702819824,3.512481451034546,-3.333946228027344,0.5898441076278687,0.0040425499901175,-0.8075069785118103,-0.8378147482872009,0.3401804566383362,0.5497555732727051,-0.8775450504737317,-0.1173458203983645,-0.2871871446794644,0.3656066117657475,-0.0040425610599304,0.6308717713305071,-0.7881908653744302,27230,5.050528339359116,serve,serves_watch-right
2910,1761597290872038400,34.10303831100464,1.5355597734451294,3.5528457164764404,-3.3922030925750732,0.6178674101829529,0.0125751895830035,-0.7861817479133606,-0.8733300566673279,0.3362102210521698,0.6219361424446106,-0.8651744350294749,-0.1254314233417538,-0.3019537734727648,0.380215999103059,-0.0125755211325018,0.6660897138409779,-0.8237710156051535,27240,5.146620087415015,serve,serves_watch-right
2920,1761597290882084352,34.11308431625366,1.6884657144546509,3.54478120803833,-3.487520694732666,0.6449100375175476,0.0218032207340002,-0.7639474272727966,-0.9009982943534852,0.4008805155754089,0.6830605864524841,-0.8519629456013686,-0.1339336954974206,-0.3163669515055726,0.3951365839632579,-0.0218049493716387,0.70110622370829,-0.8605603990210142,27250,5.251589366843066,serve,serves_watch-right
2930,1761597290892129536,34.12312936782837,1.883901000022888,3.4949820041656494,-3.593334674835205,0.6705626845359802,0.0317320860922336,-0.7411738634109497,-0.90325927734375,0.4235596656799316,0.7054682970046997,-0.8378469075023658,-0.1428646473881626,-0.3301556661145049,0.4106085702882522,-0.0317374137815771,0.7354225806075044,-0.8991264694711012,27260,5.355001052539767,serve,serves_watch-right
2940,1761597290902175488,34.13317537307739,2.067355155944824,3.4069395065307617,-3.6574394702911377,0.6944791078567505,0.0420825593173503,-0.7182812094688416,-0.906957745552063,0.3683178424835205,0.7112468481063843,-0.8230077673811551,-0.1521735196879549,-0.3430781632883323,0.426378837741377,-0.0420949905186675,0.7685518432240579,-0.9389795515705572,27270,5.409071789208869,serve,serves_watch-right
2950,1761597290912221440,34.143221378326416,2.236757516860962,3.2653510570526123,-3.698456525802612,0.7163839340209961,0.0528572499752044,-0.6957013010978699,-0.9224233627319336,0.3304130434989929,0.7321850657463074,-0.8075479008468587,-0.1617283580912624,-0.3549553355684782,0.4423993804804251,-0.052881892814514,0.8000439851423267,-0.979988501472225,27280,5.417027080260958,serve,serves_watch-right
2960,1761597290922267392,34.15326738357544,2.3933217525482178,3.0641684532165527,-3.7523410320281982,0.7359170913696289,0.0640058815479278,-0.6740395426750183,-0.9394999146461488,0.3457536399364471,0.7388588786125183,-0.7914682017460131,-0.1714778182153903,-0.3654799549200412,0.4589093802692214,-0.0640496618531714,0.8292561683201771,-1.0226998141620676,27290,5.403441546047337,serve,serves_watch-right
2970,1761597290932313344,34.16331338882446,2.497116804122925,2.89469313621521,-3.828951597213745,0.752906322479248,0.0759585499763488,-0.6537295579910278,-0.9553751945495604,0.3303372263908386,0.7335482835769653,-0.7749427082528125,-0.1809994287429215,-0.3746657519641318,0.4757399420337448,-0.0760317845665936,0.8557880125326162,-1.0664703100163877,27300,5.4107033757257685,serve,serves_watch-right
2980,1761597290942359552,34.173359394073486,2.671730279922486,2.8066039085388184,-3.920080184936523,0.7676731944084167,0.0885795354843139,-0.6346900463104248,-0.9543492197990416,0.2863746583461761,0.7210700511932373,-0.7580100466317276,-0.1903101441083546,-0.3826709031351286,0.4927125821729909,-0.0886957835546304,0.8799433206403617,-1.1109870636009374,27310,5.512004793576655,serve,serves_watch-right
