t_rel_ms,time,seconds_elapsed,rotationRateX,rotationRateY,rotationRateZ,gravityX,gravityY,gravityZ,accelerationX,accelerationY,accelerationZ,quaternionW,quaternionX,quaternionY,quaternionZ,pitch,roll,yaw,timestamp,omega_mag,label,session_id
0,1761597278194191872,21.42519187927246,-0.127447247505188,-0.108967088162899,-0.0132570760324597,-0.2093017399311065,0.8618078231811523,-0.4620391428470611,0.0113189369440078,-0.0402288436889648,-0.0343445539474487,0.0407982142084819,0.0982109447895569,-0.5092494821031995,0.8540229390366573,-1.0388230151993412,-0.4253423397810342,2.8004285360170464,14620,0.16820338065651375,serve,serves_watch-right
10,1761597278204237824,21.435237884521484,-0.0024182237684726,-0.1192045509815216,-0.0164296999573707,-0.2099390774965286,0.8621434569358826,-0.4611228108406067,0.0468531399965286,-0.002234399318695,-0.0251595377922058,0.0406383716456569,0.098692558930772,-0.5096060945038204,0.8537622113150282,-1.0394850652357093,-0.4272344453589704,2.7994696501351815,14630,0.12035575524913554,serve,serves_watch-right
20,1761597278214284032,21.445283889770508,0.1379335969686508,-0.1065170168876648,-0.0670440569519996,-0.210819661617279,0.8617048263549805,-0.461540937423706,0.0571941137313842,0.0258837938308715,-0.0072853565216064,0.0405650155069414,0.0992523168986508,-0.5092921614735086,0.8538882138755383,-1.0386199651677137,-0.4284724442720485,2.79917076621084,14640,0.18672562125198627,serve,serves_watch-right
30,1761597278224329984,21.45532989501953,0.1957345753908157,-0.1414776593446731,-0.0652219206094741,-0.2119936048984527,0.8607757687568665,-0.4627351462841034,0.0327486097812652,0.018756091594696,0.016995370388031,0.0406936974560942,0.0998564144021685,-0.508587379640331,0.8542315962433757,-1.036791856602162,-0.4295955844074872,2.798766650940781,14650,0.2501636484884621,serve,serves_watch-right
40,1761597278234375936,21.465375900268555,0.1688003987073898,-0.1524493098258972,-0.0493963509798049,-0.2130129337310791,0.8596569895744324,-0.4643439352512359,0.0017855316400527,0.0389330983161926,0.0258063673973083,0.0406713428470255,0.1004541808869315,-0.5076780415298772,0.8547033051634018,-1.034597866250865,-0.4300979456303995,2.799200613240553,14660,0.23275387464075917,serve,serves_watch-right
50,1761597278244421888,21.475421905517575,0.0874371007084846,-0.1087782680988311,-0.0575687885284423,-0.2138689011335373,0.8587972521781921,-0.4655398726463318,0.0121629685163497,0.0198801159858703,0.0004519820213317,0.0405583615177077,0.1010132888154096,-0.506977688756445,0.855058449196079,-1.0329173501300262,-0.4306432045451719,2.799662612463349,14670,0.1509706050975466,serve,serves_watch-right
60,1761597278254467840,21.4854679107666,0.0427359715104103,-0.170340210199356,-0.0304562132805585,-0.2147026509046554,0.8583123683929443,-0.4660499691963196,0.0226250439882278,-0.0171869397163391,-0.001906543970108,0.0403112527980744,0.1016460626823538,-0.5065995405781126,0.8552192200937546,-1.0319716557591148,-0.4317047197359642,2.799904781273336,14680,0.17824065585351243,serve,serves_watch-right
70,1761597278264514048,21.495513916015625,0.0117274560034275,-0.1015619337558746,-0.0187199302017688,-0.2156410962343216,0.8579184412956238,-0.4663419127464294,0.0191689431667327,-0.016350507736206,-0.0301332771778106,0.0402000236623692,0.1022623773624351,-0.5063313595909805,0.8553098024101278,-1.0312044685238713,-0.4331258928640772,2.7995617881296853,14690,0.10393649695513162,serve,serves_watch-right
80,1761597278274560000,21.50555992126465,-0.0836648717522621,-0.055968053638935,-0.0274975318461656,-0.2159429043531417,0.8576729893684387,-0.4666538536548614,0.028244525194168,0.0122458338737487,-0.0118923187255859,0.040297511662931,0.1023790934378288,-0.5061537322059494,0.8553964912955754,-1.0307269452432124,-0.4334040507266332,2.799318166209342,14700,0.10434724745331839,serve,serves_watch-right
90,1761597278284605952,21.515605926513672,-0.1937663555145263,-0.1262145191431045,-0.03189068287611,-0.2158261835575103,0.8583042621612549,-0.4655458033084869,-0.0034426301717758,0.0459773540496826,0.0318604707717895,0.0401478134056281,0.1024120234344422,-0.5066940645462009,0.8550796040532258,-1.031955899325236,-0.4341044464973623,2.7988704248780794,14710,0.2334363318470617,serve,serves_watch-right
100,1761597278294651136,21.52565097808838,-0.2819464802742004,-0.1081615462899208,-0.0434685088694095,-0.2158597558736801,0.8595790863037109,-0.4631720781326294,-0.0181490331888198,0.038492202758789,0.0378485918045043,0.0399449150540178,0.1025809866504044,-0.5078297989157823,0.8543947612923688,-1.0344453520183017,-0.4361178275774518,2.797371499268656,14720,0.3050938365456875,serve,serves_watch-right
110,1761597278304697088,21.5356969833374,-0.3944599628448486,-0.0463282763957977,-0.0264676865190267,-0.2160610407590866,0.8613220453262329,-0.4598281979560852,0.0031856745481491,-0.0566345453262329,0.0509079098701477,0.0399270510238581,0.1027518429160774,-0.5094388690096197,0.8534166372997256,-1.0378661308715087,-0.4392572069925956,2.7944660891574045,14730,0.3980521447135214,serve,serves_watch-right
120,1761597278314743040,21.545742988586422,-0.4292352497577667,-0.007912709377706,-0.0089552719146013,-0.2162584066390991,0.8633530735969543,-0.4559097290039062,-0.0037275254726409,-0.0982621908187866,0.0541458427906036,0.0401280453161807,0.1027971749724754,-0.5113490765032515,0.8522584870657549,-1.0418773929582494,-0.4429136160728446,2.7905309564443415,14740,0.42940156904624005,serve,serves_watch-right
130,1761597278324788992,21.55578899383545,-0.4052684009075165,-0.0643919631838798,-0.0077773565426468,-0.2162497788667678,0.8652859926223755,-0.4522348940372467,-0.0209634155035018,-0.0417995452880859,0.0233255624771118,0.0403335638662734,0.1027142895061141,-0.5131591582244762,0.8511702653427531,-1.0457205663639757,-0.4460398863720793,2.7869346322025934,14750,0.4104257411171978,serve,serves_watch-right
140,1761597278334834944,21.565834999084473,-0.2683867216110229,-0.1098787561058998,0.0016052266582846,-0.2166032195091247,0.8667330741882324,-0.4492847323417663,-0.0123396515846252,0.0378994941711425,-0.0214183926582336,0.0402700555926399,0.1029995517926728,-0.5145373854477068,0.8503061959204258,-1.0486145999128176,-0.4492308249665266,2.7842189628190863,14760,0.2900126723664278,serve,serves_watch-right
150,1761597278344881152,21.575881004333496,-0.1836816817522049,-0.0384948514401912,0.0316358283162117,-0.2166637778282165,0.8676257133483887,-0.4475292563438415,0.0255321860313415,0.0662274360656738,-0.0478015542030334,0.040123153842807,0.1031470200489483,-0.5153601273366442,0.8497969008948693,-1.050407091392933,-0.4508738041852915,2.7829853906659476,14770,0.1903198345732086,serve,serves_watch-right
160,1761597278354927104,21.58592700958252,-0.1627295315265655,0.0297497157007455,-0.0430759601294994,-0.2164788544178009,0.8683470487594604,-0.4462176561355591,0.0493493676185607,0.0829010605812072,-0.031092494726181,0.0401575760557235,0.1030332153895885,-0.5160187220558866,0.8494092598767521,-1.0518596500912514,-0.4516905748872185,2.7819334888491203,14780,0.17094292718977547,serve,serves_watch-right
170,1761597278364973056,21.595973014831543,-0.1515296101570129,0.0976941436529159,-0.0765992999076843,-0.2167995572090149,0.8689686059951782,-0.4448499381542206,0.0240352749824523,0.1067699193954467,-0.0151568055152893,0.0407208884837737,0.1028987667285758,-0.5167077257115444,0.8489798446496595,-1.0531143584010227,-0.4534800072210539,2.7791070555754276,14790,0.19588981904315558,serve,serves_watch-right
180,1761597278375019008,21.606019020080566,-0.1642480641603469,0.1556463986635208,-0.0248988196253776,-0.2167196571826934,0.8696368932723999,-0.4435810446739197,0.0153799653053283,0.0343547463417053,-0.0838694870471954,0.0413616894373814,0.1024765908836283,-0.5174050958758091,0.8485750624023377,-1.054466391157016,-0.4544605456517872,2.776553719598724,14800,0.22764704965380547,serve,serves_watch-right
190,1761597278385064960,21.61606502532959,-0.1014030575752258,0.1646878272294998,-0.0069714835844933,-0.2161669135093689,0.8702042102813721,-0.4427374601364136,0.0151781439781188,-0.0122787952423095,-0.1439782381057739,0.0419819740261863,0.1017791878810806,-0.517950055248057,0.8482960961825863,-1.0556167030912036,-0.4542041124863196,2.7748677886720885,14810,0.1935284529637619,serve,serves_watch-right
200,1761597278395110144,21.626110076904297,-0.0381260886788368,0.1872594505548477,0.0046569425612688,-0.2155171930789947,0.8704681396484375,-0.4425354599952698,-0.0010660737752914,0.016143798828125,-0.1647948622703552,0.0425516796013742,0.1010467765446696,-0.5181909124532147,0.8482081691235789,-1.056152531059988,-0.4531980541068804,2.773961724188781,14820,0.19115801728954224,serve,serves_watch-right
210,1761597278405156096,21.63615608215332,0.0878664627671241,0.2268185764551162,0.0003151912242174,-0.2146908342838287,0.8703638911247253,-0.4431415796279907,-0.0047762989997863,0.0357944965362548,-0.1597636640071869,0.0430235073438974,0.1002601973577842,-0.5180512601901508,0.8483629380273685,-1.0559408331213618,-0.4511503274406904,2.7741697231042517,14830,0.2432432553018472,serve,serves_watch-right
220,1761597278415202048,21.646202087402344,0.1451440006494522,0.2367578893899917,0.029276181012392,-0.2135573029518127,0.8698396682739258,-0.4447160363197326,-0.0039109736680984,0.0344266891479492,-0.1246504187583923,0.0434035126801124,0.0993378158722253,-0.5174688144562956,0.8488075530226207,-1.0548772065900136,-0.4476910238944162,2.775734557790721,14840,0.2792457231321584,serve,serves_watch-right
230,1761597278425248256,21.656248092651367,0.2995583415031433,0.2615799009799957,0.0068821916356682,-0.212111085653305,0.8689364790916443,-0.4471670985221863,-0.0110944956541061,0.0375424027442932,-0.1014626622200012,0.0437893811605413,0.0982195810599109,-0.5164972129062403,0.8495093437057658,-1.0530493676611303,-0.4429130839745413,2.778330022091849,14850,0.39775194420961446,serve,serves_watch-right
240,1761597278435294208,21.66629409790039,0.3740685880184173,0.2409337013959884,0.0111287795007228,-0.2107785195112228,0.8674148321151733,-0.4507371783256531,-0.0022494494915008,0.0680710077285766,-0.0821760296821594,0.0441632985210309,0.0971696626918142,-0.5149655032038272,0.850539985025867,-1.0499831414137994,-0.4374184587325646,2.7817716051961665,14860,0.44508449393754373,serve,serves_watch-right
250,1761597278445340160,21.676340103149418,0.3509763181209564,0.282300591468811,0.0379140563309192,-0.2094576507806778,0.8658269047737122,-0.4543912410736084,0.0031893253326416,0.0418421626091003,-0.0561983585357666,0.0445521956566961,0.0961214396804265,-0.5133858682498157,0.8515930937854937,-1.04680063469795,-0.4319334398875427,2.785183907787664,14870,0.4520126939510078,serve,serves_watch-right
260,1761597278455386112,21.68638610839844,0.3178658783435821,0.3044861555099487,0.0327721126377582,-0.2078492939472198,0.8643741607666016,-0.4578821659088135,0.0089967399835586,0.0176143646240234,-0.060321569442749,0.0449834198063887,0.0948833035375352,-0.5119141227282311,0.8525946712922821,-1.043904440235599,-0.4261224420966042,2.7885774744704452,14880,0.4413893370700152,serve,serves_watch-right
270,1761597278465432064,21.69643211364746,0.277006596326828,0.3080281615257263,0.0320290885865688,-0.2062329947948455,0.8630955219268799,-0.461014449596405,-0.0239458978176116,-0.0128451585769653,-0.0459283590316772,0.0454934805362486,0.0936004731242192,-0.5106189659045781,0.8534856502130981,-1.0413671451584956,-0.4206447046304,2.791451713358379,14890,0.41549953696385683,serve,serves_watch-right
280,1761597278475478016,21.706477880477905,0.3188369870185852,0.331021249294281,0.036889623850584,-0.2045406997203827,0.8618070483207703,-0.4641676247119903,-0.0427736937999725,-0.0380766987800598,-0.0354356169700622,0.0460301968071018,0.0922615169594368,-0.5093171964247881,0.8543798444453831,-1.0388215288125966,-0.4150607765254915,2.7943086799158205,14900,0.46107801522440167,serve,serves_watch-right
290,1761597278485523968,21.71652388572693,0.3563316464424133,0.3197257220745086,0.0267765372991561,-0.2027459740638733,0.8603095412254333,-0.4677194058895111,-0.0420049726963043,-0.0560340881347656,-0.0284201204776763,0.046520093976677,0.0908931412041463,-0.5078176190285457,0.8553920035556487,-1.0358765865522688,-0.4090294505724409,2.7976409180341975,14910,0.4794932351578696,serve,serves_watch-right
300,1761597278495568896,21.726568937301636,0.416357159614563,0.265419065952301,0.0052660079672932,-0.2012925893068313,0.8585490584373474,-0.4715662002563476,-0.0459607988595962,-0.0162334442138671,-0.0065068900585174,0.0469132946482919,0.0897877134845811,-0.5061176458658044,0.8564940906939513,-1.0324331287711923,-0.4034447428470605,2.8010567648847724,14920,0.49378972829860507,serve,serves_watch-right
310,1761597278505615104,21.73661494255066,0.4149355888366699,0.2488137185573578,0.0327327847480773,-0.2000252157449722,0.8565865755081177,-0.4756567478179931,-0.0285667032003402,-0.0053445100784301,0.0004065036773681,0.0473626328314571,0.0887631596483653,-0.5042744627429109,0.8576625888046222,-1.0286177624162451,-0.3980735886315266,2.80429683865555,14930,0.48492395756751183,serve,serves_watch-right
320,1761597278515661056,21.746660947799683,0.3636876940727234,0.3182128965854645,0.0435546301305294,-0.1983660161495208,0.8548493385314941,-0.4794619083404541,-0.0140821188688278,-0.0559144020080566,-0.0038908123970031,0.0478012563983864,0.0875205349151543,-0.5026024340991326,0.8587468323827807,-1.0252603606021824,-0.3922831459831789,2.8076459516853256,14940,0.4852063397968472,serve,serves_watch-right
330,1761597278525707008,21.756706953048703,0.4864455461502075,0.2697955667972564,0.0227340348064899,-0.1966415345668792,0.852911114692688,-0.4836058914661407,-0.0373214483261108,-0.0347043871879577,0.045632928609848,0.0482995528144546,0.0862099873123459,-0.5007643028069538,0.8599244525255115,-1.0215364284087052,-0.3861961404355184,2.811104466692402,14950,0.5567187382973643,serve,serves_watch-right
340,1761597278535752960,21.76675295829773,0.5942772030830383,0.1411769092082977,-0.0062147905118763,-0.1956313699483871,0.8502684831619263,-0.4886429905891418,-0.0869767069816589,0.0097474455833435,0.036738634109497,0.0485221790864792,0.08548396869385,-0.4983683352849629,0.8613751985446679,-1.0164952216505505,-0.3808136320495647,2.8151316476695465,14960,0.610847720318995,serve,serves_watch-right
350,1761597278545798912,21.776798963546753,0.5802388787269592,0.171055182814598,-0.0397551767528057,-0.1951420456171035,0.8473025560379028,-0.4939614534378052,-0.0963771045207977,-0.0087558627128601,0.0033608973026275,0.048771136188748,0.0850522688793671,-0.495767469780471,0.8629032939597411,-1.0108856856966506,-0.3762363813628225,2.8187503773607503,14970,0.6062322212095801,serve,serves_watch-right
360,1761597278555845120,21.786844968795776,0.5144516825675964,0.2476763576269149,-0.0548079833388328,-0.1945629268884658,0.8444745540618896,-0.4990071356296539,-0.0863819122314453,-0.0962598323822021,0.039549708366394,0.0492586248511987,0.0844359794370657,-0.4933224108685869,0.8643362961379949,-1.0055833130861198,-0.3717693618495064,2.821632416972877,14980,0.5735922130413176,serve,serves_watch-right
370,1761597278565891072,21.7968909740448,0.4871316850185394,0.2473967224359512,-0.0883691385388374,-0.1938970535993576,0.8418503403663635,-0.5036783218383789,-0.1223413348197937,-0.1522904634475708,0.0743723511695861,0.0499780224345663,0.0836428976074731,-0.4910852299921895,0.8656450127511297,-1.0007025141182235,-0.3674758098266212,2.823733056287682,14990,0.5534541728699395,serve,serves_watch-right
380,1761597278575937024,21.806936979293823,0.5299965739250183,0.1782927811145782,-0.1686632633209228,-0.1939152926206588,0.83903568983078,-0.5083464980125427,-0.1630336046218872,-0.1208654046058654,0.0711058974266052,0.0508094881206985,0.0831922180131756,-0.4887799142292185,0.86694395451446,-0.9955083860372445,-0.3644246404473804,2.8249310112427324,15000,0.5840650482299821,serve,serves_watch-right
390,1761597278585982208,21.81698203086853,0.5721378922462463,0.1316752135753631,-0.2449055761098861,-0.194924846291542,0.8357862830162048,-0.5132890939712524,-0.1584687232971191,-0.0986952185630798,0.0522600412368774,0.0517960140768641,0.0832390390342881,-0.4862372991112546,0.8683097542318176,-0.9895632862965956,-0.3629341730758678,2.82507616004046,15010,0.636128030213895,serve,serves_watch-right
400,1761597278596028160,21.827028036117554,0.5148364305496216,0.0954796895384788,-0.3168244361877441,-0.1966882497072219,0.8323636651039124,-0.5181549191474915,-0.1265692114830017,-0.1416288018226623,0.0445068478584289,0.0529478847439308,0.0836384314426867,-0.4836601570168778,0.869640211460826,-0.9833589384357776,-0.3627917662884055,2.8241498396254308,15020,0.6120054286533099,serve,serves_watch-right
410,1761597278606074112,21.837074041366577,0.3653550744056701,0.0771105363965034,-0.4212943911552429,-0.1993361264467239,0.829341471195221,-0.521975040435791,-0.1197556853294372,-0.1933246254920959,0.0616021156311035,0.0544587601360928,0.0843548553574739,-0.4815565816544582,0.8706444918556083,-0.9779280199332686,-0.3647959604562488,2.821007992004243,15030,0.5629558856928276,serve,serves_watch-right
420,1761597278616120064,21.8471200466156,0.28522789478302,0.1044264510273933,-0.5214729309082031,-0.2028325498104095,0.8266985416412354,-0.5248129367828369,-0.1378199458122253,-0.2167589664459228,0.1025106906890869,0.0564708135866119,0.0852890921278873,-0.4799159450703191,0.8713309747935795,-0.9732144357496024,-0.3688018708283241,2.8154388644358153,15040,0.6034847581393599,serve,serves_watch-right
430,1761597278626166016,21.857166051864624,0.2339748442173004,0.0981674864888191,-0.5518707633018494,-0.2067729234695434,0.8242319822311401,-0.5271495580673218,-0.1598805338144302,-0.2587717771530151,0.1309551000595092,0.0588872081325132,0.0862629478444134,-0.4785226332152108,0.8718412491153412,-0.968844523005453,-0.3738050593627036,2.8083278536084015,15050,0.6074063076042332,serve,serves_watch-right
440,1761597278636212224,21.867212057113647,0.2748868763446808,0.0404988303780555,-0.6056365966796875,-0.2111910581588745,0.8217012286186218,-0.5293443202972412,-0.1808529943227768,-0.2518770098686218,0.1042649745941162,0.0613865017628767,0.0874755174476286,-0.4771539452191549,0.8722980164849935,-0.9643896994985915,-0.3796158023132747,2.800638107641917,15060,0.6663322274108321,serve,serves_watch-right
450,1761597278646258176,21.87725806236267,0.3552570939064026,-0.0054681268520653,-0.6854139566421509,-0.2164802253246307,0.8186259865760803,-0.5319658517837524,-0.1939658969640731,-0.1924664378166198,0.0793597102165222,0.0640361379541095,0.0891240571939137,-0.4754723572930999,0.8728586298719136,-0.9590145229347192,-0.3864780664012598,2.792323431615029,15070,0.7720296594962794,serve,serves_watch-right
460,1761597278656304128,21.887304067611694,0.4044718146324157,-0.0045091561041772,-0.7381992936134338,-0.2223785668611526,0.8150025010108948,-0.5350874662399292,-0.1986419111490249,-0.1720277070999145,0.0811080336570739,0.0668479321670855,0.0910539105933355,-0.4734611397948166,0.8735416501566228,-0.9527335427955508,-0.3938758614783751,2.783653332798784,15080,0.8417576720245463,serve,serves_watch-right
470,1761597278666350080,21.89735007286072,0.4320336580276489,-0.008230123668909,-0.8055026531219482,-0.2287162542343139,0.8109923005104065,-0.5384983420372009,-0.2060676962137222,-0.1762571930885315,0.0886844992637634,0.0699930290043159,0.0930753167349867,-0.4712619305374309,0.8742713039069351,-0.9458462326887012,-0.4016416968716781,2.774257297374038,15090,0.9140871625785227,serve,serves_watch-right
480,1761597278676395008,21.90739488601685,0.4572914838790893,0.0074728052131831,-0.8968358635902405,-0.2356159538030624,0.8065977692604065,-0.542111873626709,-0.2323253452777862,-0.1865110993385315,0.0897955894470214,0.0734704530693137,0.0952637101915802,-0.4689017931769839,0.8750189228411613,-0.9383735095806516,-0.4099956842563859,2.764026597726581,15100,1.0067203734243915,serve,serves_watch-right
490,1761597278686440960,21.91744089126587,0.4677097797393799,0.0036900513805449,-0.9690815806388856,-0.2431604415178299,0.8018120527267456,-0.5458667278289795,-0.2628515362739563,-0.2172783613204956,0.0939624309539794,0.0773068488675961,0.0976570709207929,-0.4664008252907152,0.8757608681367617,-0.9303214320428064,-0.4190699776999513,2.7528450041743824,15110,1.0760507257915917,serve,serves_watch-right
500,1761597278696486912,21.927486896514893,0.4375932812690735,-0.0055318097583949,-1.0438799858093262,-0.251255601644516,0.7968140244483948,-0.5495071411132812,-0.277034193277359,-0.2484589219093322,0.0979232788085937,0.0813866989762244,0.1002627924441809,-0.4638898753901194,0.8764301370267795,-0.9220038898569765,-0.4288568182100859,2.7409005525352477,15120,1.1319027809420368,serve,serves_watch-right
510,1761597278706532864,21.937532901763916,0.4139973819255829,-0.0326806046068668,-1.1472638845443726,-0.2601030766963959,0.7916268110275269,-0.5528774857521057,-0.283796489238739,-0.2463997602462768,0.0961513519287109,0.0859571855535152,0.1030684482072137,-0.4614522329204787,0.8769550747198004,-0.9134669351126884,-0.4397321661656764,2.7274288317158737,15130,1.2201132221800364,serve,serves_watch-right
520,1761597278716579072,21.94757890701294,0.3804745078086853,-0.0652379170060157,-1.2339308261871338,-0.269838273525238,0.7862346172332764,-0.5558978319168091,-0.3021221756935119,-0.2332255840301513,0.1082507371902465,0.0908851543751436,0.1062262683832384,-0.4590937302571365,0.8773190766676648,-0.9046915516782358,-0.4519074784843614,2.712642738966077,15140,1.292904528850606,serve,serves_watch-right
530,1761597278726625024,21.957624912261963,0.356254369020462,-0.0996006801724433,-1.2944715023040771,-0.2803032696247101,0.7806686758995056,-0.5585576295852661,-0.3082587718963623,-0.2338241934776306,0.1123906373977661,0.0960337677906346,0.1097191047420782,-0.4568182321847022,0.8775286179920995,-0.8957350626558821,-0.4651137971227621,2.696990746088249,15150,1.346288951605247,serve,serves_watch-right
540,1761597278736670976,21.967670917510983,0.3118171691894531,-0.1141586229205131,-1.3263821601867676,-0.2911604046821594,0.775026798248291,-0.5608556270599365,-0.3017045259475708,-0.2387109398841858,0.1127966046333313,0.1012867149066183,0.1134123588707913,-0.454653532185151,0.8775925843212308,-0.886757513329146,-0.4788390634287526,2.680956310940787,15160,1.3673155352917439,serve,serves_watch-right
550,1761597278746716928,21.97771692276001,0.2851482629776001,-0.1508753597736358,-1.3814544677734375,-0.3024185597896576,0.7693282961845398,-0.562740683555603,-0.3019210696220398,-0.2336685061454773,0.119869589805603,0.1066790575418343,0.1172928121834208,-0.4526279306317692,0.877490778657841,-0.8777890661862162,-0.493120425318333,2.6644311959811446,15170,1.4186223431897433,serve,serves_watch-right
560,1761597278756762880,21.987762928009033,0.3250883221626282,-0.1624809801578521,-1.4486812353134155,-0.3142188191413879,0.7632421255111694,-0.5645601153373718,-0.3032586276531219,-0.2032445669174194,0.1281129717826843,0.1122615209271306,0.1214305509818293,-0.4505269790108063,0.8773126757999046,-0.868316211111027,-0.5078754989799901,2.647527557832899,15180,1.4935728330646527,serve,serves_watch-right
570,1761597278766809344,21.997809171676636,0.425071656703949,-0.23042993247509,-1.5122764110565186,-0.3266390860080719,0.7563346028327942,-0.5668022632598877,-0.2929745316505432,-0.1823753118515014,0.1359704136848449,0.1180242252120044,0.1259000148469401,-0.4480491495552763,0.8771951935251404,-0.8576918431612282,-0.5227986930604563,2.630679582036016,15190,1.587691346122255,serve,serves_watch-right
580,1761597278776855296,22.00785517692566,0.4935990571975708,-0.3091250360012054,-1.5736777782440186,-0.3398476243019104,0.7485188841819763,-0.5694057941436768,-0.2783316373825073,-0.1529989242553711,0.106622040271759,0.1237730012090277,0.1309089035734892,-0.4451516227961525,0.8771448029515124,-0.8458256835698894,-0.5380972451453122,2.614288299934993,15200,1.6779928685450685,serve,serves_watch-right
590,1761597278786901248,22.017901182174683,0.5209148526191711,-0.3417338728904724,-1.6488713026046753,-0.3538080751895904,0.7399664521217346,-0.5720747113227844,-0.2572911381721496,-0.1191931962966919,0.0787885785102844,0.1298288134012999,0.1362730207158466,-0.4420320316695942,0.8770300892222779,-0.8330204868802661,-0.5538860448560551,2.597477348410232,15210,1.7626431562041176,serve,serves_watch-right
600,1761597278796947200,22.027947187423703,0.5074419379234314,-0.3531998097896576,-1.6894915103912354,-0.3681490421295166,0.7309494614601135,-0.5746122598648071,-0.2582700252532959,-0.116432249546051,0.0887113809585571,0.1360881106048098,0.1418261570942139,-0.4388384732292724,0.8768045928980328,-0.8197122205776217,-0.5698034183275948,2.5805121890957254,15220,1.799063364554733,serve,serves_watch-right
610,1761597278806993152,22.03799319267273,0.4865896105766296,-0.3822644650936126,-1.722473382949829,-0.3827672898769378,0.7216175198554993,-0.5768512487411499,-0.2726129591464996,-0.1195057034492492,0.0886157751083374,0.1424257830957773,0.1475688953929282,-0.4356578989340309,0.8764362237641312,-0.8061359198855773,-0.5858389783938939,2.563593090446326,15230,1.8302486512397846,serve,serves_watch-right
620,1761597278817039360,22.048039197921753,0.4335468113422394,-0.3876604437828064,-1.756538152694702,-0.3975470066070556,0.712131917476654,-0.5786402821540833,-0.2862603962421417,-0.099369466304779,0.0780147314071655,0.1488405301371091,0.1534292287223412,-0.432596022861333,0.8758805564873946,-0.7925302696054034,-0.6019725276381669,2.5466340606408973,15240,1.8503161187135082,serve,serves_watch-right
630,1761597278827085312,22.058085203170776,0.3760856389999389,-0.3881036043167114,-1.7865352630615234,-0.4124357104301452,0.702545166015625,-0.5799371004104614,-0.2928560376167297,-0.0862274169921875,0.0839806795120239,0.1554306079436141,0.1593277278628967,-0.4297046817314691,0.875105628205863,-0.7789676875333279,-0.6181854186536392,2.529380638869253,15250,1.866486823341628,serve,serves_watch-right
640,1761597278837131264,22.0681312084198,0.3204549849033355,-0.3806644678115845,-1.8015763759613037,-0.4272940456867218,0.6929285526275635,-0.5807494521141052,-0.3017251193523407,-0.0738642215728759,0.0820921659469604,0.1621286801957221,0.1652149577478215,-0.4270003582818761,0.8741219109385918,-0.7655429516534258,-0.6343271025537885,2.5120097501254093,15260,1.8690303028109359,serve,serves_watch-right
650,1761597278847176192,22.078176021575928,0.2862163186073303,-0.3591677248477936,-1.8107703924179075,-0.4419587850570678,0.6832790970802307,-0.5812074542045593,-0.3068052232265472,-0.0629178285598754,0.0703737139701843,0.1689809041027368,0.1709761194204598,-0.4244566424451698,0.8729542638267355,-0.7522441656154215,-0.650133384646038,2.494534900198414,15270,1.868103490084737,serve,serves_watch-right
660,1761597278857222144,22.08822202682495,0.2858647406101227,-0.3661430180072784,-1.8202170133590696,-0.4564632475376129,0.6734080910682678,-0.5815176367759705,-0.3147159218788147,-0.0392376184463501,0.0748953819274902,0.1758916598899572,0.1766921116878174,-0.421925444930856,0.8716770335692848,-0.7388092506125619,-0.6654975484838082,2.4773325097225123,15280,1.87855511904266,serve,serves_watch-right
670,1761597278867268096,22.098268032073975,0.3110113739967346,-0.3815706968307495,-1.8131929636001587,-0.4708631634712219,0.6632106304168701,-0.581755518913269,-0.3239366114139557,0.0001956820487976,0.0812367796897888,0.1828133609810325,0.1824288920765889,-0.4193351161117521,0.8703200268335511,-0.725100443489799,-0.6804362923403826,2.460559981971793,15290,1.8788275585280216,serve,serves_watch-right
680,1761597278877314048,22.108314037323,0.3586196899414062,-0.4013971388339996,-1.8184210062026975,-0.4851789176464081,0.6525255441665649,-0.5820754170417786,-0.3155107498168945,0.0309919118881225,0.0652907490730285,0.1896396205750074,0.1882664127072831,-0.4165549916126979,0.8689501840865206,-0.7109125348151203,-0.6948559790545297,2.4446000766716467,15300,1.89641311450776,serve,serves_watch-right
690,1761597278887360000,22.11836004257202,0.3446308970451355,-0.4199005365371704,-1.812857985496521,-0.4993942379951477,0.6414602994918823,-0.5823522210121155,-0.2954207956790924,0.0391579270362854,0.0589147210121154,0.1963264180253272,0.1942113214902776,-0.4136494439807676,0.8675436565047194,-0.6964002467858986,-0.708859048752046,2.42943177612639,15310,1.8924959686511469,serve,serves_watch-right
700,1761597278897406208,22.128406047821045,0.3338292241096496,-0.4559153914451599,-1.8488097190856936,-0.5136400461196899,0.6301759481430054,-0.5822818279266357,-0.2773755192756653,0.0474362969398498,0.0670230984687805,0.2029880709937369,0.2002730342812418,-0.4107916781913633,0.8659888258221193,-0.6817797755353906,-0.7228460506018964,2.414493487280766,15320,1.9332351570390927,serve,serves_watch-right
710,1761597278907452160,22.13845205307007,0.3293085098266601,-0.4975086450576782,-1.8840508460998535,-0.5281407833099365,0.6184520721435547,-0.5818799734115601,-0.2656824588775635,0.0693988800048828,0.0808271169662475,0.2097712520424925,0.2065356653384126,-0.4079252886250613,0.8642545529073336,-0.666771371228869,-0.7370231616678581,2.399482705912622,15330,1.9762607462683046,serve,serves_watch-right
720,1761597278917498112,22.148498058319092,0.2741053402423858,-0.5178263187408447,-1.925552487373352,-0.542847752571106,0.6063967943191528,-0.5810328125953674,-0.2443683743476867,0.0728481411933898,0.0723811388015747,0.2166567314287077,0.2129762233909929,-0.4051230803256101,0.8623086262508779,-0.6515213020225935,-0.7514351256357976,2.3843495308985876,15340,2.0127171225882172,serve,serves_watch-right
730,1761597278927543040,22.1585431098938,0.2485309690237045,-0.4969380497932434,-1.9713200330734253,-0.557589054107666,0.5941369533538818,-0.5797377228736877,-0.2194952964782714,0.0815832614898681,0.0637159943580627,0.2238198045945228,0.2194055500637197,-0.4024827331513964,0.8601009210612184,-0.636192231395935,-0.7659263061735926,2.368674038993605,15350,2.04812542113338,serve,serves_watch-right
740,1761597278937589248,22.168589115142822,0.2992837429046631,-0.4602743983268738,-1.9740082025527952,-0.5721055269241333,0.5812819004058838,-0.5786248445510864,-0.1932600736618042,0.0951859951019287,0.0483208894729614,0.2310841531718877,0.2258026422499253,-0.3996257665639389,0.8578534835479315,-0.6203031820744555,-0.7797328683837222,2.353459802930749,15360,2.0489342752435733,serve,serves_watch-right
750,1761597278947635200,22.17863512039185,0.3216716051101684,-0.431521862745285,-1.9514509439468384,-0.58603835105896,0.568051278591156,-0.5778208374977112,-0.2006285190582275,0.106173574924469,0.0203866958618164,0.2383205098809397,0.2320019350065132,-0.3965661313431832,0.8556365125382134,-0.604136075447289,-0.7924586316618085,2.339042347261553,15370,2.024313346839446,serve,serves_watch-right
760,1761597278957681152,22.18868112564087,0.3651115298271179,-0.4329453408718109,-1.9559986591339111,-0.5996439456939697,0.5543751120567322,-0.5771440863609314,-0.2461506724357605,0.162604808807373,-0.0150494575500488,0.2454316083361893,0.238209283796717,-0.393299235245457,0.853425652070375,-0.587611982204549,-0.8045155532746999,2.3254911006684664,15380,2.0363395718614727,serve,serves_watch-right
770,1761597278967727104,22.198727130889893,0.3556410670280456,-0.3400470912456512,-1.936697483062744,-0.6126807928085327,0.5403650999069214,-0.5767388939857483,-0.2576804757118225,0.1866093873977661,-0.0573401451110839,0.2525802090256305,0.2441999946237732,-0.3898678269954528,0.8512183059623074,-0.5708709422639973,-0.8156070058093211,2.312481078716073,15390,1.998226647235754,serve,serves_watch-right
780,1761597278977773312,22.208773136138916,0.3165708482265472,-0.2437860518693924,-1.910928010940552,-0.6246892809867859,0.5264543890953064,-0.5767225623130798,-0.241719901561737,0.1473889350891113,-0.0695786476135253,0.2597659941152214,0.2496548388234978,-0.3864080420314068,0.8490481786904969,-0.5544248747172247,-0.825302276159127,2.2999222659533887,15400,1.952253724296654,serve,serves_watch-right
790,1761597278987819264,22.21881914138794,0.3399086594581604,-0.2127573043107986,-1.91041100025177,-0.6360348463058472,0.5124422311782837,-0.5769424438476562,-0.2457400560379028,0.1531461477279663,-0.0662002563476562,0.2670699187943273,0.2547743221747982,-0.3829083720894072,0.8468440756817462,-0.538026446817796,-0.8340765161895672,2.2875199507311192,15410,1.952043482403814,serve,serves_watch-right
800,1761597278997864192,22.228864192962646,0.3726320564746856,-0.1630502641201019,-1.8681113719940183,-0.6468073725700378,0.498073011636734,-0.5775495171546936,-0.2472813129425048,0.1763806939125061,-0.0685533285140991,0.2742337363235533,0.2597635478355711,-0.3791413161631112,0.8447310459797037,-0.5213751216109063,-0.841904641396441,2.2760424112207556,15420,1.9118786928870675,serve,serves_watch-right
810,1761597279007910144,22.23891019821167,0.4037534892559051,-0.1471368074417114,-1.8602383136749268,-0.6569631695747375,0.4836391806602478,-0.578353226184845,-0.2351571917533874,0.1756778359413147,-0.0761724710464477,0.2813204505674711,0.2645309204592979,-0.3752955865821999,0.8426359352450489,-0.5048077507189526,-0.8489479424379189,2.2650757196194165,15430,1.9092283006111639,serve,serves_watch-right
820,1761597279017956352,22.248956203460693,0.4448764622211456,-0.1511917859315872,-1.8515684604644775,-0.6668598055839539,0.4687260389328003,-0.5793046951293945,-0.2298229336738586,0.1764918565750122,-0.0622968673706054,0.2882412229922408,0.2693848169476648,-0.371186589340974,0.8405767778012563,-0.4878480189176319,-0.8555425792506147,2.254930303360712,15440,1.9102564714085857,serve,serves_watch-right
830,1761597279028002304,22.259002208709717,0.4788210988044739,-0.1365931332111358,-1.8109140396118164,-0.6763327121734619,0.4535707235336303,-0.5803858041763306,-0.231992483139038,0.1509519517421722,-0.0564702749252319,0.2950334453437061,0.2741817968205282,-0.3669215549066432,0.8385393680961537,-0.4707678440969829,-0.8615975005667312,2.245403447577354,15450,1.8781205998454802,serve,serves_watch-right
840,1761597279038048256,22.26904821395874,0.5030603408813477,-0.1490896344184875,-1.7669943571090698,-0.6854832768440247,0.4382335245609283,-0.5814328193664551,-0.2290827631950378,0.1470936238765716,-0.0645174980163574,0.3015024539266925,0.2790578377410119,-0.3625055972511627,0.8365481432022589,-0.4536324905501251,-0.8673431723964903,2.236816828371229,15460,1.8432488935881641,serve,serves_watch-right
850,1761597279048094208,22.279094219207764,0.4851270914077759,-0.1514606475830078,-1.7130377292633057,-0.6944062113761902,0.4228940308094024,-0.582203209400177,-0.2233030200004577,0.1393465399742126,-0.087047278881073,0.3078489665584675,0.2839519691755137,-0.3581475727169914,0.8344642204560594,-0.4366366107871528,-0.8730643334439114,2.2284584904973417,15470,1.786837117496616,serve,serves_watch-right
860,1761597279058140160,22.289140224456787,0.458698958158493,-0.1407776474952697,-1.6906580924987793,-0.7026682496070862,0.4080426692962646,-0.5828880667686462,-0.2160176634788513,0.1190569400787353,-0.0903601646423339,0.3139642585309422,0.2885751070055048,-0.3539496600431117,0.8323884318652696,-0.4203090962702578,-0.8783037234013966,2.220492926253131,15480,1.7574264894958196,serve,serves_watch-right
870,1761597279068186368,22.29918622970581,0.4799480736255646,-0.0832160785794258,-1.6921592950820925,-0.7102781534194946,0.3931374847888946,-0.5839075446128845,-0.2020601630210876,0.1009726226329803,-0.0820165276527404,0.3200442320500289,0.2929318759379622,-0.3496242940328776,0.830376775623495,-0.404041340671999,-0.8827344651942527,2.2129133920391544,15490,1.7608742570222757,serve,serves_watch-right
880,1761597279078231040,22.30923104286194,0.4882054030895233,-0.0742544829845428,-1.714600682258606,-0.7173835039138794,0.378036767244339,-0.585191547870636,-0.1912010312080383,0.0924527049064636,-0.088667094707489,0.3261328805411306,0.2971151725707124,-0.3451475169835923,0.8283919119760923,-0.3876747763326805,-0.8865370165793083,2.2056124813414875,15500,1.7842964281337288,serve,serves_watch-right
890,1761597279088276992,22.31927704811096,0.5271986126899719,-0.1102146133780479,-1.7433472871780396,-0.7244670391082764,0.3624728918075561,-0.5863112807273865,-0.2210285663604736,0.1333919763565063,-0.0944595336914062,0.3322399331757658,0.3014536893975035,-0.3405437335130032,0.8263003150819029,-0.370919851279791,-0.890410218197383,2.19842618653058,15510,1.8246493915093205,serve,serves_watch-right
900,1761597279098323200,22.329323053359985,0.5505922436714172,-0.0650648772716522,-1.736074924468994,-0.7312757968902588,0.3464853167533874,-0.5875232219696045,-0.2323777079582214,0.1484182476997375,-0.1102458834648132,0.3382634255884804,0.3058407106967941,-0.3357079636748762,0.8242204826879561,-0.3538217121710559,-0.8939721353661395,2.191730265425123,15520,1.8224547732153804,serve,serves_watch-right
910,1761597279108369152,22.33936905860901,0.5126773118972778,-0.020949613302946,-1.7328996658325195,-0.7374439835548401,0.3305434882640838,-0.588996946811676,-0.2080058455467224,0.1193619072437286,-0.0881727933883667,0.3444466271195705,0.3098816882839636,-0.3308698407586733,0.8221040674095044,-0.3368793641187315,-0.8968481916073664,2.184804679331595,15530,1.807268149521321,serve,serves_watch-right
920,1761597279118415104,22.349415063858032,0.5366300344467163,-0.0199828520417213,-1.7465689182281494,-0.7432361245155334,0.3144637644290924,-0.5905188322067261,-0.2187236547470092,0.1379593014717102,-0.0675316452980041,0.3506493807717484,0.3138245166158684,-0.3259674048731064,0.8199416587356542,-0.3198917082909498,-0.899403416240943,2.177939281013474,15540,1.8272586282096612,serve,serves_watch-right
930,1761597279128461056,22.359461069107056,0.5361093878746033,-0.0111989500001072,-1.736398220062256,-0.748737096786499,0.2981685400009155,-0.5920205116271973,-0.2214930057525634,0.1582981348037719,-0.0529532432556152,0.3568369986736623,0.3177503400739071,-0.3209742545585302,0.8177271066972996,-0.3027733420635708,-0.9017567755856202,2.171211557799075,15550,1.8173105048075187,serve,serves_watch-right
940,1761597279138507008,22.36950707435608,0.5045944452285767,0.0516055114567279,-1.725550889968872,-0.75368332862854,0.2819994986057281,-0.5936645865440369,-0.1807190775871276,0.1379071176052093,-0.0420622825622558,0.3629723445560953,0.3214545095313077,-0.3159662943681027,0.815526363188388,-0.2858775477852913,-0.9036101281444467,2.164629264192239,15560,1.7985562423345598,serve,serves_watch-right
950,1761597279148552192,22.379552125930783,0.5616568922996521,0.1169560253620147,-1.7597602605819702,-0.7580100893974304,0.2656393647193908,-0.5956982374191284,-0.1440590023994445,0.1158761382102966,-0.033742070198059,0.3692569786972969,0.3248858342609498,-0.310805510737409,0.8133254942818978,-0.2688670568772602,-0.904730098352376,2.157960412023731,15570,1.850916894746954,serve,serves_watch-right
960,1761597279158598144,22.38959813117981,0.7283779978752136,0.1270741373300552,-1.7972609996795654,-0.7618685960769653,0.2481903582811355,-0.5982957482337952,-0.1337918043136596,0.1350646317005157,-0.0287031531333923,0.3754768625617582,0.3284086840293733,-0.3049587860891085,0.8112737065590272,-0.2508117216398516,-0.9050830157472548,2.1522256066424683,15580,1.9434066597436763,serve,serves_watch-right
970,1761597279168644096,22.399644136428833,0.8049883246421814,0.1343504190444946,-1.8428316116333008,-0.7654786705970764,0.2295338213443756,-0.6011294722557068,-0.120950162410736,0.173313483595848,-0.0427151322364807,0.3816519152042091,0.3321851962284017,-0.2984765610073757,0.8092629566602428,-0.2315986833786863,-0.9050840263495376,2.1472567848526576,15590,2.0154613830938675,serve,serves_watch-right
980,1761597279178690304,22.409690141677856,0.8309038281440735,0.167811244726181,-1.898347020149231,-0.7687259316444397,0.2101491242647171,-0.6040676832199097,-0.1188625693321228,0.2032420039176941,-0.0756350755691528,0.3878789634003119,0.3360262406025717,-0.2916376780724201,0.8072073348242499,-0.2117274893417342,-0.9047718245805442,2.1425139164893725,15600,2.079010147736295,serve,serves_watch-right
990,1761597279188736256,22.41973614692688,0.8508157134056091,0.2561110258102417,-1.9365001916885376,-0.7713165283203125,0.1901533603668213,-0.6073817014694214,-0.136199951171875,0.1941239833831787,-0.0946904420852661,0.3943301975118515,0.3396877087844911,-0.2844668658973197,0.8051053727077425,-0.1913183559340471,-0.9037479989456284,2.137627977320843,15610,2.130613345524995,serve,serves_watch-right
1000,1761597279198782208,22.429782152175903,0.8303765058517456,0.3151354193687439,-1.964663028717041,-0.7731015682220459,0.1698191314935684,-0.6111263036727905,-0.1459962725639343,0.150569662451744,-0.0949588418006897,0.4008750528234637,0.3430829795903906,-0.2770034762191546,0.8030331472489274,-0.170646131917241,-0.9018833368988052,2.132792388330362,15620,2.156092829731337,serve,serves_watch-right
1010,1761597279208828160,22.439828157424927,0.7819349765777588,0.3289010524749756,-1.9812827110290527,-0.7743096351623535,0.1494857221841812,-0.6148972511291504,-0.1822791099548339,0.1625259816646576,-0.1190046668052673,0.4076951289116839,0.3462137672646405,-0.2696060271443571,0.8007704122989558,-0.1500481342729619,-0.8996490784735875,2.1271915687100194,15630,2.155244624384304,serve,serves_watch-right
1020,1761597279218873344,22.44987320899963,0.7068494558334351,0.4313150346279144,-1.9820764064788816,-0.7747777700424194,0.1294491291046142,-0.6188395619392395,-0.222918152809143,0.1887881755828857,-0.1485401391983032,0.4146161895519417,0.3489815235830725,-0.2622824843678098,0.7984442948170571,-0.129813412675909,-0.8968291801261458,2.1211670472855895,15640,2.1480911743751334,serve,serves_watch-right
1030,1761597279228919296,22.459919214248657,0.7072699666023254,0.4927336573600769,-1.9905588626861572,-0.7742488384246826,0.1095939949154853,-0.6233201026916504,-0.2134068012237548,0.1671241372823715,-0.1220107078552246,0.4217344241027684,0.3512382133978615,-0.2548954280348242,0.7961156700625577,-0.109814578048003,-0.8929750377532369,2.1146690130592125,15650,2.1691799945074868,serve,serves_watch-right
1040,1761597279238965248,22.46996521949768,0.7599760890007019,0.4905807375907898,-1.9641077518463137,-0.7731258869171143,0.0896031782031059,-0.627891480922699,-0.213370144367218,0.1653711795806884,-0.0978317856788635,0.4286306616209928,0.3534331474603546,-0.2472635566279798,0.7938649577484607,-0.0897235134198143,-0.8886927231595949,2.108696600668597,15660,2.1623950556756983,serve,serves_watch-right
1050,1761597279249011200,22.480011224746704,0.7722532749176025,0.4875159859657287,-1.944691181182861,-0.7716330289840698,0.069566361606121,-0.6322523355484009,-0.1961404085159301,0.1749252080917358,-0.1362107992172241,0.4352793696045756,0.355678638733717,-0.2395131434183407,0.7916173317602424,-0.0696225971040347,-0.8843559777577772,2.10314716762591,15670,2.148457760199974,serve,serves_watch-right
1060,1761597279259057408,22.490057229995728,0.7453019022941589,0.5624707937240601,-1.965784192085266,-0.7694617509841919,0.049591589719057,-0.6367647647857666,-0.1693810224533081,0.1750940978527069,-0.1492002010345459,0.441818645210374,0.3577272878411467,-0.2316221460364192,0.789416657565983,-0.0496119388545755,-0.8794834428006323,2.09776287343023,15680,2.1762710789807844,serve,serves_watch-right
1070,1761597279269103360,22.50010323524475,0.7427670955657959,0.5943941473960876,-2.0086822509765625,-0.7665102481842041,0.029457913711667,-0.6415560841560364,-0.1685330867767334,0.1787787824869156,-0.1180721521377563,0.4487007847053241,0.3594535188690741,-0.223640587732216,0.7870486940551912,-0.0294621751682117,-0.8739079700245849,2.091534821414587,15690,2.2225687269693686,serve,serves_watch-right
1080,1761597279279149056,22.510149002075195,0.726523756980896,0.6048307418823242,-2.020427942276001,-0.7630484700202942,0.0092045003548264,-0.6462756991386414,-0.197355031967163,0.1901668310165405,-0.1257426738739013,0.4555740414121224,0.3611127099942615,-0.2155452434705016,0.7845954948912309,-0.0092046305264846,-0.8680665796672316,2.085188587525592,15700,2.230647006075411,serve,serves_watch-right
1090,1761597279289193984,22.520194053649902,0.6694783568382263,0.6439089179039001,-2.022296905517578,-0.758993923664093,-0.0108243385329842,-0.6510076522827148,-0.1992274522781372,0.1919004023075103,-0.1516351103782653,0.4625463581924564,0.3625391666600074,-0.2075127175790999,0.7820195488448201,0.0108245503056808,-0.8618348842453931,2.0783113603329566,15710,2.2254223731455913,serve,serves_watch-right
1100,1761597279299240192,22.53024005889893,0.5696319341659546,0.7557983994483948,-2.0214154720306396,-0.7540137767791748,-0.0303793046623468,-0.6561557054519653,-0.1880028247833252,0.1770010143518448,-0.1521939039230346,0.4695645223579862,0.3634940273473078,-0.199484915523782,0.7794787223851943,0.0303839792833705,-0.8546816404316679,2.0710536192850713,15720,2.232001852955157,serve,serves_watch-right
1110,1761597279309286144,22.54028606414795,0.510274350643158,0.8190109729766846,-2.008819580078125,-0.7479583621025085,-0.049103993922472,-0.6619267463684082,-0.1886870861053466,0.1763928234577179,-0.115539014339447,0.4768958169219421,0.3637267175938944,-0.1916754746377879,0.776874316731419,0.049123748177905,-0.846342872459732,2.0626167972835945,15730,2.228567924045791,serve,serves_watch-right
1120,1761597279319332096,22.550332069396973,0.5596815347671509,0.8198620676994324,-1.9835196733474731,-0.741322934627533,-0.0676055401563644,-0.6677348017692566,-0.2058510780334472,0.2071624398231506,-0.0844929814338684,0.4840210475270305,0.36381867728159,-0.1837622882745627,0.7743325773234456,0.0676571468207381,-0.8375758428196384,2.0544013365100873,15740,2.218054896743579,serve,serves_watch-right
1130,1761597279329378048,22.560378074645996,0.6793240308761597,0.855679988861084,-1.9877619743347168,-0.734158456325531,-0.0864510834217071,-0.6734519004821777,-0.1982603073120117,0.2368112206459045,-0.1068977713584899,0.4909623453333933,0.3639608316202889,-0.1755179809300681,0.7718042490818434,0.0865591300416124,-0.8284988498622503,2.046555469263626,15750,2.268229937390429,serve,serves_watch-right
1140,1761597279339424256,22.57042407989502,0.7912919521331787,0.8473896980285645,-1.994656562805176,-0.7264387011528015,-0.1061237379908561,-0.6789879202842712,-0.175706684589386,0.2595203518867492,-0.1191535592079162,0.4975700415605925,0.364325650818203,-0.1666518955279328,0.7693621546089124,0.1063239505983158,-0.8191478915084511,2.039639050732412,15760,2.307133948728907,serve,serves_watch-right
1150,1761597279349470208,22.580470085144043,0.8504559397697449,0.8844667673110962,-2.014685869216919,-0.7181954383850098,-0.1262736767530441,-0.6842881441116333,-0.1791281700134277,0.2600169777870178,-0.1100081205368042,0.5040544622858841,0.3647853684840499,-0.1574406885835144,0.7668592957701417,0.1266116784569643,-0.8095700908667789,2.032922121303051,15770,2.3589226183980077,serve,serves_watch-right
1160,1761597279359515136,22.59051513671875,0.8916983604431152,0.9109211564064026,-2.0838327407836914,-0.709213137626648,-0.1469603478908538,-0.6895066499710083,-0.1746827363967895,0.2543059289455414,-0.1077650785446167,0.5104919152432917,0.3652380943291655,-0.1478100537077703,0.764297957019185,0.1474945448443916,-0.7994861780744812,2.0262574197972985,15780,2.4427980290576192,serve,serves_watch-right
1170,1761597279369561088,22.600561141967773,0.93534117937088,0.9104065895080566,-2.159257173538208,-0.6995264887809753,-0.1683853864669799,-0.6944847106933594,-0.1874058842658996,0.2588090002536773,-0.1045569777488708,0.5171694178119747,0.3657308741632242,-0.1378352659187406,0.7614316075029562,0.1691914409170162,-0.7890148538756213,2.018903982475192,15790,2.523112130192158,serve,serves_watch-right
1180,1761597279379607296,22.610607147216797,0.8258042931556702,0.9523205161094666,-2.18976092338562,-0.6891505122184753,-0.1898198425769806,-0.6993139386177063,-0.1963627934455871,0.2434697449207306,-0.1224786043167114,0.5239140517923335,0.3660896462616976,-0.1277551996753929,0.7584003466727145,0.1909786515387878,-0.7780783792161391,2.0110101975121784,15800,2.526642039859224,serve,serves_watch-right
1190,1761597279389653248,22.62065315246582,0.7073373198509216,1.0643703937530518,-2.250966310501098,-0.6775738596916199,-0.2104145139455795,-0.7047122716903687,-0.2058489918708801,0.2121997773647308,-0.1313320398330688,0.5311224812145157,0.3657108922539823,-0.1178957439281814,0.7551589085573176,0.2119989432758749,-0.7657676752813768,2.0013375745297157,15810,2.588447362834106,serve,serves_watch-right
1200,1761597279399699200,22.630699157714844,0.6706823110580444,1.104013442993164,-2.266573429107666,-0.6648240089416504,-0.2305431216955185,-0.7105342745780945,-0.2162032127380371,0.1845225989818573,-0.1079776287078857,0.5384797767074699,0.3648001659611048,-0.1079522750986899,0.751868865083417,0.2326357960724246,-0.752175210543793,1.9907913612075976,15820,2.6088341369685932,serve,serves_watch-right
1210,1761597279409745152,22.640745162963867,0.6776440143585205,1.126206636428833,-2.280794382095337,-0.6513288617134094,-0.2503999173641205,-0.7162894606590271,-0.237175166606903,0.1880524754524231,-0.1087989807128906,0.5459567495191184,0.3636626944938694,-0.0980035860390991,0.7483822996172705,0.2530932993867131,-0.7379347690733384,1.9793805720810076,15830,2.6324068476453113,serve,serves_watch-right
1220,1761597279419791104,22.65079116821289,0.6841444373130798,1.1293479204177856,-2.293181896209717,-0.6372052431106567,-0.2701373398303985,-0.7218000292778015,-0.2292040586471557,0.2083086967468261,-0.1368882656097412,0.5532979678721253,0.3624529944993575,-0.0879079077285895,0.74482311530848,0.2735356585604641,-0.7232308024733697,1.9677838370257483,15840,2.64616015115533,serve,serves_watch-right
1230,1761597279429836288,22.6608362197876,0.7175396680831909,1.1308670043945312,-2.316410541534424,-0.6224831342697144,-0.289791852235794,-0.7270044684410095,-0.2244254350662231,0.2173583805561065,-0.1319738030433654,0.5606147122204497,0.3611902285912206,-0.077713473968158,0.7410893693211749,0.2940093518004456,-0.708099858316513,1.955683424881097,15850,2.675720679337251,serve,serves_watch-right
1240,1761597279439882240,22.67088222503662,0.7526351809501648,1.0927482843399048,-2.336242198944092,-0.6073261499404907,-0.309566855430603,-0.7316579222679138,-0.2210124731063842,0.2365535497665405,-0.1049662232398986,0.5677295781862985,0.3600543519476902,-0.0673194132569642,0.7372327502775492,0.3147374809007427,-0.6928083702255672,1.943561923984744,15860,2.6867426636465983,serve,serves_watch-right
1250,1761597279449928192,22.680928230285645,0.7666327357292175,1.0580854415893557,-2.36576509475708,-0.5918542742729187,-0.3293146193027496,-0.7357040047645569,-0.2347601056098938,0.2795557081699371,-0.0937485098838806,0.5749017906716231,0.3590320203218275,-0.0569561505130965,0.7330347580655164,0.3355776215663391,-0.6774626621409144,1.9306417780240832,15870,2.7026126316521912,serve,serves_watch-right
1260,1761597279459974400,22.690974235534668,0.9855723977088928,1.0616695880889893,-2.4450201988220215,-0.5756821632385254,-0.3497496545314789,-0.7390975952148438,-0.2193312644958496,0.277895987033844,-0.0945205688476562,0.5818622990416737,0.3582308188675443,-0.046063913509984,0.7286872483542027,0.3573038555592755,-0.6617412225811776,1.9178291597076544,15880,2.8419393093531005,serve,serves_watch-right
1270,1761597279470020096,22.701020002365112,0.6966955661773682,0.978209912776947,-2.433056592941284,-0.5602558255195618,-0.370185911655426,-0.7409964799880981,-0.2214061617851257,0.2503281235694885,-0.0619667768478393,0.5887957073117441,0.3580998129841235,-0.0355849163479851,0.7237525897276101,0.379209145216822,-0.6473837234435144,1.9043080200859277,15890,2.7133086315127026,serve,serves_watch-right
1280,1761597279480066048,22.711066007614136,0.7177900671958923,1.0284957885742188,-2.683140754699707,-0.5429194569587708,-0.389717161655426,-0.7438809871673584,-0.2070957422256469,0.2592240273952484,-0.0394594073295593,0.5963743245566449,0.3569730603496742,-0.025094446622061,0.7185249314366142,0.4003244547544017,-0.6304780568715722,1.888189870413416,15900,2.9618018970232463,serve,serves_watch-right
1290,1761597279490112000,22.72111201286316,0.5768007040023804,1.2006514072418213,-2.6399037837982178,-0.5238418579101562,-0.4088630974292755,-0.7472755312919617,-0.1830673217773437,0.2475471794605255,-0.1191490292549133,0.60444073964188,0.3551834786574802,-0.0143851715011892,0.7129440448577884,0.4212079097830308,-0.6113983289847889,1.8698771627060444,15910,2.956916441423659,serve,serves_watch-right
1300,1761597279500157184,22.731157064437863,0.5474126935005188,1.2208714485168457,-2.6682708263397217,-0.5035539269447327,-0.4267322421073913,-0.7512210607528687,-0.2555097341537475,0.1444904208183288,-0.0968166589736938,0.6123293375253099,0.3526700251261936,-0.0036520200347098,0.7075756975961385,0.4408764206868324,-0.5905234142417854,1.850967795834645,15920,2.9849383500341804,serve,serves_watch-right
1310,1761597279510203136,22.74120306968689,0.5999965071678162,1.2038298845291138,-2.6707441806793213,-0.4827429056167602,-0.4442857205867767,-0.7546982765197754,-0.3203576803207397,0.2940324246883392,-0.0844283103942871,0.6202203921214693,0.3501436875484683,0.0070900954302526,0.7019086345265874,0.4603768008499385,-0.5690650154733496,1.8310712798710895,15930,2.9903305299132765,serve,serves_watch-right
1320,1761597279520249088,22.751249074935913,0.6226639151573181,1.2221014499664309,-2.731626033782959,-0.4612202942371368,-0.4617738127708435,-0.7576547861099243,-0.2742380499839782,0.3484315276145935,-0.1236928105354309,0.6278695086028686,0.3476259295930904,0.018133169320159,0.6961374024418632,0.4799939373120951,-0.5468265056063731,1.810866491052188,15940,3.056635911208581,serve,serves_watch-right
1330,1761597279530295040,22.761295080184937,0.5980115532875061,1.2117114067077637,-2.7459349632263184,-0.4390014111995697,-0.4788452386856079,-0.7602532505989075,-0.2128082811832428,0.3346344232559204,-0.1347509622573852,0.635704343198214,0.3449987796018983,0.0291411183266905,0.6899324019958016,0.4993388825292138,-0.523666812438139,1.7890202787578788,15950,3.0603955909783567,serve,serves_watch-right
1340,1761597279540341248,22.77134108543396,0.5327480435371399,1.2608906030654907,-2.761305570602417,-0.4161024689674377,-0.4950664639472961,-0.7627371549606323,-0.2218675017356872,0.3302105069160461,-0.1271859407424926,0.6433625149972514,0.3420809298640585,0.0401505921106954,0.6837055345786598,0.5179113200783941,-0.4994114290968769,1.766488773384116,15960,3.081959448959614,serve,serves_watch-right
1350,1761597279550387200,22.781387090682983,0.3839253187179565,1.27213716506958,-2.7803823947906494,-0.3923698365688324,-0.5098211169242859,-0.765590250492096,-0.2207435369491577,0.3077184557914734,-0.1139721870422363,0.6512216845942347,0.3385553233011015,0.0508446775958227,0.6772780266857547,0.5349768240582389,-0.4736025566687379,1.7421011122128816,15970,3.081599889402539,serve,serves_watch-right
1360,1761597279560432128,22.79143214225769,0.3188487887382507,1.3201240301132202,-2.8326833248138428,-0.3678866624832153,-0.5232175588607788,-0.7687020897865295,-0.2309445142745971,0.3217251896858215,-0.0886129736900329,0.659074280381059,0.3344923885578711,0.0613498075264912,0.6707997348683961,0.5506221546233635,-0.4463665164759302,1.7164824259883402,15980,3.141414780579067,serve,serves_watch-right
1370,1761597279570478080,22.80147814750671,0.2105761021375656,1.455239176750183,-2.884241819381714,-0.3420026302337646,-0.5354223847389221,-0.7722415924072266,-0.2033922672271728,0.2898932099342346,-0.0698909759521484,0.6671679789376698,0.3297153044763273,0.0718820181569445,0.6640841052813298,0.5650077932105566,-0.4169088115731453,1.6888081491410671,15990,3.2374240113105883,serve,serves_watch-right
1380,1761597279580524288,22.811524152755737,0.2481869161128997,1.509857416152954,-3.0069684982299805,-0.3144301772117615,-0.5468651056289673,-0.7759331464767456,-0.2236709892749786,0.2752891182899475,-0.0893775224685669,0.6752433871575052,0.3242997520143388,0.082843732585467,0.6572770155609553,0.5786152124371714,-0.3850055017465536,1.6597393408367105,16000,3.373888811414681,serve,serves_watch-right
1390,1761597279590570240,22.82157015800476,0.3305403888225555,1.5573288202285769,-3.0348308086395264,-0.2856576144695282,-0.5582996606826782,-0.7789102792739868,-0.2545340359210968,0.3461567163467407,-0.0605367422103881,0.6834555815822992,0.3188559315982535,0.0942112090942931,0.6498796723939525,0.5923348563395677,-0.3515095086114482,1.6287157692656693,16010,3.427058219526645,serve,serves_watch-right
1400,1761597279600616192,22.831616163253784,0.3452481627464294,1.6145886182785034,-3.038175344467163,-0.2560702264308929,-0.5691763162612915,-0.7813234925270081,-0.2386349737644195,0.3621146082878113,-0.0251187682151794,0.6912455923606604,0.3132349028948142,0.1059346715239198,0.6425273425377273,0.6055037481093639,-0.3167072944827769,1.5974530523829995,16020,3.457831997637022,serve,serves_watch-right
1410,1761597279610662144,22.841662168502808,0.4198395907878876,1.6718004941940308,-3.101048231124878,-0.2254468202590942,-0.579560399055481,-0.7831242084503174,-0.2235430479049682,0.3951426744461059,-0.0031764507293701,0.6990562000401762,0.3074621389177157,0.1179191701824973,0.6347303125431649,0.6181891200398526,-0.2803019890094748,1.5644534928029432,16030,3.547912387044398,serve,serves_watch-right
1420,1761597279620708352,22.85170817375183,0.4945743083953857,1.7222723960876465,-3.091022491455078,-0.1939262151718139,-0.5897472500801086,-0.783958375453949,-0.212293267250061,0.4132488965988159,0.0145034790039062,0.7064314650075326,0.3016761113380741,0.1304313549230522,0.6268441989069131,0.6307458619165713,-0.2424999567794756,1.5310183329749243,16040,3.572848442843807,serve,serves_watch-right
1430,1761597279630753280,22.861753225326535,0.4943743348121643,1.7781591415405271,-3.110193252563477,-0.1616448760032653,-0.5991869568824768,-0.7841210961341858,-0.2060766667127609,0.4078265428543091,0.029619812965393,0.7136936268669947,0.2957389927796131,0.1431010185756095,0.6186290281040023,0.642485191663844,-0.2032999096058411,1.4961924510980376,16050,3.6165671546172753,serve,serves_watch-right
1440,1761597279640799232,22.87179923057556,0.456925481557846,1.8290002346038816,-3.155864715576172,-0.1284793764352798,-0.6075326800346375,-0.7838348746299744,-0.2100978791713714,0.4306833148002624,0.0286163687705993,0.7206830654991233,0.2894082484301616,0.1559661093018351,0.6103551751425101,0.6529505980362298,-0.1624665671659356,1.4605144687663547,16060,3.676071933041653,serve,serves_watch-right
1450,1761597279650845184,22.881845235824585,0.4000821709632873,1.9444024562835691,-3.1853139400482178,-0.0941719934344291,-0.6144301295280457,-0.7833308577537537,-0.2030386924743652,0.4149367809295654,0.0257319808006286,0.7276904970814231,0.2824967915309449,0.1689086681135425,0.6017740229538805,0.6616635045943238,-0.119645748776573,1.423071522051509,16070,3.7532641196949856,serve,serves_watch-right
1460,1761597279660891136,22.89189100265503,0.3409627676010132,2.0150115489959717,-3.2098872661590576,-0.0587677620351314,-0.6198465824127197,-0.7825194001197815,-0.1914000809192657,0.3741495609283447,0.0484343171119689,0.7343448227853049,0.2749185425527931,0.1820991388413737,0.5932937034903639,0.6685471564278843,-0.0749599917746024,1.3851510888312522,16080,3.8052468268073434,serve,serves_watch-right
1470,1761597279670937088,22.901937007904053,0.3004270493984222,2.117266893386841,-3.229731798171997,-0.0224375836551189,-0.6236752867698669,-0.78136146068573,-0.2047047317028045,0.3781613707542419,0.0430344343185424,0.7410067918188052,0.2667966976613026,0.1952915486977792,0.5844568442295943,0.6734357022353065,-0.0287081211420211,1.34571648132818,16090,3.873531076158487,serve,serves_watch-right
1480,1761597279680983040,22.911983013153076,0.2662911415100097,2.2054784297943115,-3.2147836685180664,0.0147736109793186,-0.6260048747062683,-0.7796791791915894,-0.2205688953399658,0.3983437418937683,0.0421456098556518,0.7471948586857583,0.2580471104826,0.2087393030133739,0.575794583608933,0.6764194593887207,0.0189460531319254,1.306457020736044,16100,3.907669396418428,serve,serves_watch-right
1490,1761597279691028224,22.922028064727783,0.2672165930271148,2.2103333473205566,-3.1824710369110107,0.0521674416959285,-0.627050518989563,-0.7772298455238342,-0.2264380753040313,0.4110318422317505,0.1041799187660217,0.7531564238772661,0.2490919244413973,0.2221222334327583,0.5668954013454357,0.6777610607827714,0.0670191872174052,1.2668140854318608,16110,3.883954185446033,serve,serves_watch-right
1500,1761597279701074176,22.932074069976807,0.2394614964723587,2.2914252281188965,-3.1495935916900635,0.0895893424749374,-0.626771867275238,-0.7740353941917419,-0.2050373554229736,0.4339771270751953,0.1372861266136169,0.7585945884747605,0.2398260086289669,0.2355117857584017,0.5581683794462896,0.6774034346969211,0.1152304804775943,1.228060146668713,16120,3.902295629135193,serve,serves_watch-right
1510,1761597279711120128,22.94212007522583,0.1828924864530563,2.3326239585876465,-3.1407060623168945,0.1273549050092697,-0.6249964833259583,-0.7701689004898071,-0.1735127568244934,0.4448054432868957,0.1749083399772644,0.7638238944623675,0.230169971295002,0.2488721490429114,0.5492334324479681,0.6751269943302258,0.1638767744483726,1.1891706512575209,16130,3.9164548719029275,serve,serves_watch-right
1520,1761597279721166080,22.952166080474857,0.1744297444820404,2.301562786102295,-3.0859920978546143,0.1647098958492279,-0.6217876672744751,-0.765670120716095,-0.1535557359457016,0.4539867639541626,0.2198327183723449,0.7685721598565848,0.2202360918698317,0.2620324490383863,0.5404922266870074,0.6710231912477568,0.2118895361430784,1.1516684241800863,16140,3.8536948792233345,serve,serves_watch-right
1530,1761597279731212032,22.962212085723877,0.1429906040430069,2.3137078285217285,-3.0447871685028076,0.2014357894659042,-0.6173921823501587,-0.7604278326034546,-0.1367843002080917,0.4657350778579712,0.2352814078330993,0.7731257915043642,0.2103233309188378,0.2748639068454827,0.5314982488106753,0.6654232674141048,0.2589503818342719,1.1146044314452972,16150,3.826802729444864,serve,serves_watch-right
1540,1761597279741258240,22.9722580909729,0.0268046408891677,2.3251657485961914,-3.01947021484375,0.2377951443195343,-0.6114129424095154,-0.7547369003295898,-0.1217520534992218,0.4296044707298279,0.2407445907592773,0.777222261274439,0.199967454754303,0.287479704626624,0.5227753471231352,0.657844902841247,0.3052247390026901,1.079326116486479,16160,3.8110778823774574,serve,serves_watch-right
1550,1761597279751303168,22.982303142547607,-0.162915751338005,2.33996319770813,-3.008467435836792,0.2737541496753692,-0.6031643152236938,-0.7491672039031982,-0.1490593254566192,0.4257656335830688,0.2474277019500732,0.7813010935472311,0.1889784678652799,0.299505483095924,0.5139574466364665,0.6474623959330243,0.3503377274479942,1.045080799658073,16170,3.8148192121190863,serve,serves_watch-right
1560,1761597279761349120,22.99234914779663,-0.3736579716205597,2.402170419692993,-2.939464569091797,0.3093951940536499,-0.5924588441848755,-0.7438192963600159,-0.1701587736606598,0.4135038256645202,0.2553396821022033,0.7849892091555762,0.1769805562729469,0.3110759425934607,0.5056694445844008,0.6341076245360667,0.3941844017771774,1.013681996142048,16180,3.814511103398393,serve,serves_watch-right
1570,1761597279771394816,23.002394676208496,-0.5375590324401855,2.425412654876709,-2.835038661956787,0.3443473577499389,-0.5795107483863831,-0.7386420965194702,-0.1866172850131988,0.359997808933258,0.2625831365585327,0.7884497878295275,0.1642353166676435,0.3220337185561123,0.4976623944286308,0.6181282223615191,0.4362354385737883,0.9847732351004748,16190,3.769488091847996,serve,serves_watch-right
1580,1761597279781440768,23.01244068145752,-0.6341940760612488,2.3665621280670166,-2.721796989440918,0.3780067265033722,-0.5651054978370667,-0.733325719833374,-0.190857708454132,0.3616295456886291,0.2843664288520813,0.7913843481747214,0.1510892519028805,0.3324291955919162,0.4902790381750634,0.6005610885078985,0.4759461458823976,0.9593601237638096,16200,3.6621028499814026,serve,serves_watch-right
1590,1761597279791486720,23.022486686706543,-0.7282329201698303,2.390390396118164,-2.6197516918182373,0.4103255867958069,-0.549557089805603,-0.7277498841285706,-0.1599441170692443,0.3520320653915405,0.2870761156082153,0.7943605246636284,0.1380632663923886,0.3421455515624713,0.482562282444041,0.5818340086887873,0.5133974993563676,0.9349478180404918,16210,3.6204127331918317,serve,serves_watch-right
1600,1761597279801532672,23.032532691955566,-0.7462246417999268,2.3273468017578125,-2.5409395694732666,0.4415166676044464,-0.5331217050552368,-0.7216954231262207,-0.1218755543231964,0.3131357431411743,0.2966313362121582,0.7969447326306871,0.1249354740828853,0.3514874489924795,0.4751071476884811,0.5622861195848303,0.5490341072410183,0.9128771063673078,16220,3.525587645683587,serve,serves_watch-right
1610,1761597279811577600,23.042577505111694,-0.7987592220306396,2.3264214992523193,-2.4590508937835693,0.4713496565818786,-0.5161822438240051,-0.7151120901107788,-0.1201381385326385,0.2898639440536499,0.2970823645591736,0.7991702882129741,0.1119442980521619,0.3604336613839612,0.4678490908700196,0.5423874201542245,0.5827646323607885,0.8928614001773334,16230,3.478100715215155,serve,serves_watch-right
1620,1761597279821623552,23.05262351036072,-0.8895009756088257,2.285825729370117,-2.382153272628784,0.5000671744346619,-0.4983250498771667,-0.7082406878471375,-0.1035676598548889,0.2383763492107391,0.2789499759674072,0.8010409289209679,0.0987474151009866,0.368956097243473,0.4609269388995891,0.5216657887571559,0.614787878396166,0.8752214690559298,16240,3.419190761708903,serve,serves_watch-right
1630,1761597279831669504,23.06266951560974,-0.8955156803131104,2.2261595726013184,-2.288987874984741,0.5273746848106384,-0.4800339341163635,-0.7010302543640137,-0.1259312033653259,0.230934202671051,0.2674975395202636,0.8025971483413106,0.0856587719708003,0.3770244676912529,0.4542609020586425,0.5006933803504972,0.6449620155516411,0.8595960797407965,16250,3.3162026880452133,serve,serves_watch-right
1640,1761597279841715456,23.072715520858765,-1.028583526611328,2.170463800430298,-2.1699154376983643,0.5529466867446899,-0.4613766074180603,-0.6938167214393616,-0.1344743967056274,0.2057003676891327,0.2613673806190491,0.8038416469024324,0.072692060536439,0.3844574269969308,0.4480480532940978,0.4795462057329814,0.6728867815240125,0.8463971414407502,16260,3.2368858779629863,serve,serves_watch-right
1650,1761597279851761664,23.082761526107788,-1.14738667011261,2.1346521377563477,-2.069685459136963,0.576862096786499,-0.4420146048069,-0.6869157552719116,-0.124194860458374,0.1816844046115875,0.2764543294906616,0.8047800512159682,0.0595616890506333,0.3911451449384744,0.4424782974007307,0.4578433382434652,0.6985342317090907,0.8360837037436337,16270,3.186978791856455,serve,serves_watch-right
1660,1761597279861807616,23.09280753135681,-1.2262760400772097,2.078674554824829,-1.977271556854248,0.5999385118484497,-0.4219204485416412,-0.6797477602958679,-0.1035243272781372,0.1762081682682037,0.2411796450614929,0.8054025053216729,0.0461281195048536,0.3974900340810992,0.4372650975650247,0.4355624934119603,0.7231125830304104,0.8277881590767852,16280,3.119974942349452,serve,serves_watch-right
1670,1761597279871852544,23.10285258293152,-1.273479461669922,2.047924757003784,-1.8946226835250857,0.6218136548995972,-0.4016075730323791,-0.6723534464836121,-0.0618618726730346,0.1417198777198791,0.2226464748382568,0.8057510429387978,0.0327343311236488,0.4034249991568172,0.4323680125536147,0.4132715248736865,0.7463660129917358,0.8212143361632535,16290,3.066812818313488,serve,serves_watch-right
1680,1761597279881898752,23.112898588180546,-1.302793025970459,2.0457468032836914,-1.803446650505066,0.6427608728408813,-0.3812185823917389,-0.6644778251647949,-0.0229336023330688,0.1182028651237487,0.1932712197303772,0.8057433162514936,0.0193384761836025,0.4091296819189153,0.4278043325614276,0.3911140748254787,0.7687868051859601,0.8162716102963982,16300,3.0223781154714326,serve,serves_watch-right
1690,1761597279891944704,23.122944593429565,-1.275524377822876,2.013803243637085,-1.7101186513900757,0.6627344489097595,-0.3611360490322113,-0.656021237373352,-0.0029749274253845,0.1107851266860961,0.185348629951477,0.8053824656986542,0.0061417353506725,0.4146705401976169,0.4235207546129088,0.3694858757760245,0.7904886870539689,0.8126343390222859,16310,2.9337470484579766,serve,serves_watch-right
1700,1761597279901990656,23.13299059867859,-1.175021052360535,1.99408221244812,-1.6278084516525269,0.6816797852516174,-0.3418401181697845,-0.6468833684921265,0.0195531249046325,0.106900542974472,0.1584037542343139,0.8047242645914129,-0.0065459680211538,0.4201374486705024,0.4193574113745621,0.348874266621629,0.8115832168084757,0.8096602148670411,16320,2.829628721009851,serve,serves_watch-right
1710,1761597279912036608,23.143036603927612,-1.087203860282898,2.0215842723846436,-1.559445858001709,0.6999441981315613,-0.3235622048377991,-0.6366990804672241,0.0426247715950012,0.111617624759674,0.1287339329719543,0.8037212869393964,-0.018668792051307,0.4257956608589409,0.4151888593302889,0.3294918110776255,0.8326793075649572,0.8068856726874166,16330,2.7750110969518067,serve,serves_watch-right
1720,1761597279922082560,23.153082609176636,-0.9851417541503906,1.9782806634902952,-1.4660165309906006,0.7174127697944641,-0.3061826825141907,-0.6257565021514893,0.0514318346977233,0.1288602948188781,0.1342098712921142,0.8024208898934073,-0.0302858398575805,0.4315142248149431,0.4110949635546872,0.3111805152400605,0.8535313600880648,0.8044980789022905,16340,2.6520375428051213,serve,serves_watch-right
1730,1761597279932128768,23.16312861442566,-0.8264831304550171,1.9341050386428833,-1.3827909231185913,0.733785092830658,-0.2901850938796997,-0.6142899394035339,0.0543009042739868,0.1499568223953247,0.0967575907707214,0.8009337370606955,-0.0410289442800566,0.437231800190056,0.4070015372051925,0.2944202531270748,0.8738083952845154,0.8020301893893279,16350,2.517130787720352,serve,serves_watch-right
1740,1761597279942173696,23.17317366600037,-0.7923662066459656,1.9322375059127808,-1.3195321559906006,0.7494144439697266,-0.275223970413208,-0.60218745470047,0.0773830413818359,0.1440136432647705,0.0603020787239074,0.799227720087025,-0.0511630643850764,0.4430447060624314,0.4029004942809064,0.2788226758485135,0.8938981750667183,0.7995546499696348,16360,2.4703342072245533,serve,serves_watch-right
1750,1761597279952219648,23.18321967124939,-0.8341138958930969,1.941218018531799,-1.2550708055496216,0.7644056677818298,-0.2605963051319122,-0.5897232294082642,0.0734696388244628,0.1357336342334747,0.0383316278457641,0.7972743945664411,-0.0611708168977117,0.4487722275444779,0.3990177400590166,0.2636398006296223,0.9136895334120796,0.7979013932356352,16370,2.4574938685045504,serve,serves_watch-right
1760,1761597279962265856,23.193265676498413,-0.8382311463356018,2.0262980461120605,-1.188215732574463,0.7791362404823303,-0.2462030053138733,-0.5764814615249634,0.0709003806114196,0.1017785817384719,-0.0188707113265991,0.7949266898501425,-0.0712653080880697,0.4546212966662478,0.3953888710206084,0.2487607156148227,0.9337918007527638,0.7972392589465384,16380,2.4940673313890542,serve,serves_watch-right
1770,1761597279972311808,23.203311681747437,-0.7259485125541687,2.036440372467041,-1.1150342226028442,0.793542742729187,-0.232602372765541,-0.5623042583465576,0.0704861879348754,0.046353593468666,-0.0451023578643798,0.7922196582170389,-0.0810797230457317,0.4607319828608969,0.3918419884103917,0.2347525930870573,0.954321968772121,0.7968785275412384,16390,2.432569002324259,serve,serves_watch-right
1780,1761597279982357760,23.21335768699646,-0.5613381862640381,2.0054328441619873,-1.063728928565979,0.807245671749115,-0.2202802002429962,-0.5475683212280273,0.0496726036071777,0.0858502686023712,-0.0592279434204101,0.7893813990792685,-0.0901078843510847,0.467007945736665,0.3881509690483025,0.2221017148476999,0.974771573108129,0.795925340507384,16400,2.3384569025898174,serve,serves_watch-right
1790,1761597279992402688,23.223402738571167,-0.4450445771217346,2.0119709968566895,-1.019281268119812,0.8203779458999634,-0.2090384662151336,-0.5322434306144714,0.0746415853500366,0.1241233348846435,-0.079954445362091,0.7864285900799934,-0.0984442030513103,0.4734839182060573,0.3842550203758863,0.2105916074030147,0.9952803986752626,0.7942835963072842,16410,2.298918500373142,serve,serves_watch-right
1800,1761597280002448640,23.23344850540161,-0.3125143945217132,2.016674518585205,-0.972677767276764,0.8330048322677612,-0.1987847238779068,-0.5163211822509766,0.0982085466384887,0.1068200021982193,-0.0626125335693359,0.7833287083871697,-0.10617790341892,0.4801725189440769,0.3802061820881997,0.2001177379565999,1.015923555912972,0.792094676987529,16420,2.260695335433028,serve,serves_watch-right
1810,1761597280012494592,23.243494510650635,-0.2212856560945511,2.013099431991577,-0.9163476824760436,0.8451055288314819,-0.1894586086273193,-0.4999021291732788,0.108233094215393,0.0930688381195068,-0.0196596384048461,0.7801025927164721,-0.1133270540660653,0.4870378960522143,0.3760200819326135,0.1906107326353115,1.0366308080686777,0.7893776255360907,16430,2.222887702934456,serve,serves_watch-right
1820,1761597280022540544,23.253540515899655,-0.1552652269601822,2.0335075855255127,-0.8486358523368835,0.8566884398460388,-0.181008443236351,-0.483033150434494,0.1170970797538757,0.0906916856765747,0.0109414458274841,0.7766872940949107,-0.1200066985985688,0.4940463674307327,0.3718515389133868,0.1820117405139415,1.0573913356039504,0.7865146206192992,16440,2.2089461743022047,serve,serves_watch-right
1830,1761597280032586496,23.26358652114868,-0.1182803064584732,2.053462505340576,-0.8035517334938049,0.8678547143936157,-0.1732452809810638,-0.4656330943107605,0.1297038197517395,0.0800140798091888,-0.0024607479572296,0.7730375184826593,-0.1263726898723496,0.5012119325458873,0.3677355994638364,0.1741238267075293,1.078350879567112,0.7836929181617924,16450,2.208255845715438,serve,serves_watch-right
1840,1761597280042632704,23.273632526397705,-0.1387996673583984,2.11581039428711,-0.7863658666610718,0.878738284111023,-0.1657365560531616,-0.4476052522659302,0.1446229219436645,0.0665391832590103,-0.0366934537887573,0.7691428226221595,-0.1326706452851932,0.5085232352190309,0.3636234092380849,0.1665048496300599,1.0996787581074077,0.7810500136943445,16460,2.2614796590908783,serve,serves_watch-right
1850,1761597280052677632,23.283677577972412,-0.3034823536872864,2.2404284477233887,-0.7617859244346619,0.8895378112792969,-0.157897263765335,-0.428708553314209,0.1364784240722656,0.0465386360883712,-0.062410831451416,0.7648284506975049,-0.1394349756356753,0.5159492312061114,0.3597107124457265,0.1585608341363197,1.1216965308743132,0.7795151150863373,16470,2.3857784815515837,serve,serves_watch-right
1860,1761597280062723584,23.293723583221436,-0.4209231436252594,2.3872971534729004,-0.7218636274337769,0.9003933072090149,-0.1496806591749191,-0.4085188508033752,0.1085636019706726,0.0276408791542053,-0.0829362273216247,0.7598614479282572,-0.1469436755780127,0.5235915669337748,0.3561882458668088,0.1502452816490559,1.1448601550315702,0.7797550582796986,16480,2.5293183050836117,serve,serves_watch-right
1870,1761597280072769536,23.30376958847046,-0.4621504843235016,2.508533000946045,-0.6872276067733765,0.9111735820770264,-0.1415115594863891,-0.3869588375091553,0.0791217684745788,0.0221268087625503,-0.1053964793682098,0.7543137324094009,-0.154832820264143,0.531551852606101,0.3528316258326883,0.1419881784276312,1.16919520433751,0.7809849079023197,16490,2.641704500981758,serve,serves_watch-right
1880,1761597280082815744,23.31381559371948,-0.525676429271698,2.638739824295044,-0.6347327828407288,0.9217660427093506,-0.133547157049179,-0.3640228509902954,0.0733512043952941,0.0315879583358764,-0.104986548423767,0.7481821404559029,-0.16301144028502,0.5398294552482638,0.3496212121293405,0.1339473459696282,1.1946778374813396,0.7830956256771582,16500,2.7644473723015994,serve,serves_watch-right
1890,1761597280092861696,23.323861598968502,-0.5290474891662598,2.7160961627960205,-0.5777632594108582,0.932001769542694,-0.1260496973991394,-0.3398297429084778,0.0799763798713684,0.0714232474565506,-0.0650469362735748,0.7414879336837029,-0.1713196787610522,0.5483928317085672,0.3465696754867474,0.1263859023000471,1.2211537485429134,0.7859522717405568,16510,2.8268144607089885,serve,serves_watch-right
1900,1761597280102907648,23.33390760421753,-0.5494523644447327,2.7699623107910156,-0.5159459710121155,0.9416562914848328,-0.1191292256116867,-0.3147886097431183,0.0774020552635192,0.1033516451716423,-0.0340730845928192,0.7343791019768525,-0.1795692279060524,0.5571001581110748,0.3436303106268591,0.1194128147515297,1.2481827917688315,0.789272226971888,16520,2.8706775069659507,serve,serves_watch-right
1910,1761597280112952832,23.343952655792236,-0.6008521318435669,2.843430519104004,-0.432937890291214,0.9506819844245912,-0.1128870025277137,-0.2888948321342468,0.0778976678848266,0.1142145097255706,1.5437602996826172e-05,0.7267831026553606,-0.187813837806978,0.5659315781270808,0.3409306554544491,0.1131281477797697,1.2757821954536788,0.7933405686659688,16530,2.938291275241927,serve,serves_watch-right
1920,1761597280122998784,23.35399866104126,-0.6407638192176819,2.920511484146118,-0.3591784536838531,0.9590573310852052,-0.1073513254523277,-0.2620777189731598,0.0827212333679199,0.1213589012622833,0.0484393835067749,0.7186356414739793,-0.1961226117522746,0.5748887380968095,0.3385287410940119,0.1075585920324655,1.3040429615384344,0.7983331211269205,16540,3.0114738522256035,serve,serves_watch-right
1930,1761597280133044736,23.364044666290283,-0.6597726941108704,2.998412609100342,-0.2981859445571899,0.9667444229125975,-0.1025294587016105,-0.2342924624681472,0.0772008299827575,0.1272181868553161,0.0849699974060058,0.7099824879481206,-0.2043955087363994,0.5840173355595257,0.3362604967315741,0.1027099467522483,1.3330286242405922,0.8038219990113488,16550,3.0845896063881333,serve,serves_watch-right
1940,1761597280143090688,23.374090671539307,-0.7655482888221741,3.1277523040771484,-0.2378199696540832,0.9737353920936584,-0.0982911586761474,-0.2053735703229904,0.0594066977500915,0.119073636829853,0.1169489026069641,0.7006998402587248,-0.212858795490499,0.5932995403810917,0.3342252740504539,0.0984501146317992,1.3629297280858452,0.8102642343455113,16560,3.228847626653314,serve,serves_watch-right
1950,1761597280153136640,23.38413667678833,-0.7642617225646973,3.1949708461761475,-0.1815346032381057,0.9799690246582032,-0.0947173535823822,-0.1751837879419326,0.0432395935058593,0.1276305615901947,0.1479468345642089,0.6907490942645208,-0.2214703666697613,0.6027926538426946,0.3323516458795892,0.0948595498862974,1.393900262471332,0.8174794683293605,16570,3.290119982715813,serve,serves_watch-right
1960,1761597280163182848,23.394182682037354,-0.7756606936454773,3.2890970706939697,-0.1321639269590377,0.9852892160415648,-0.0919183194637298,-0.1440700590610504,0.0350202322006225,0.137999877333641,0.1347164511680603,0.6803028894908633,-0.2299640914388332,0.6124389663635414,0.3304890890706328,0.0920482510219757,1.4256041765399154,0.8248596893848014,16580,3.3819042499313117,serve,serves_watch-right
1970,1761597280173227776,23.40422773361206,-0.9327113032341005,3.4435579776763916,-0.0701572895050048,0.9896923303604126,-0.0897489860653877,-0.1115996912121772,0.0364461541175842,0.1167265474796295,0.1088073104619979,0.6691008440972493,-0.2387114161786279,0.6222676389232327,0.3287918089069516,0.0898699101840449,1.4585086413075723,0.8331611649814296,16590,3.5683278949768704,serve,serves_watch-right
1980,1761597280183273728,23.414273738861084,-1.1396299600601196,3.593406438827514,-0.0149431237950921,0.9930648803710938,-0.0883389115333557,-0.0775795876979827,-0.0036086440086364,0.0943966656923294,0.1485787630081176,0.6568366734131247,-0.248106834512651,0.6321813061644805,0.3276514503680839,0.0884542093986325,1.4928332987429178,0.8436051019426617,16600,3.7698208946079155,serve,serves_watch-right
1990,1761597280193319680,23.42431950569153,-1.2848234176635742,3.693930387496948,0.0145077090710401,0.9952604174613952,-0.0875540822744369,-0.0423234701156616,-0.0397396683692932,0.1003409698605537,0.1815751791000366,0.6436674152319514,-0.2580585006500646,0.6420623612281072,0.3268855178624081,0.087666327151655,1.528296912723587,0.855791528451237,16610,3.911023318247099,serve,serves_watch-right
2000,1761597280203365632,23.43436551094055,-1.4778634309768677,3.801902532577514,0.0657560750842094,0.9961397051811218,-0.0875688940286636,-0.0061474172398447,-0.04547119140625,0.0874468460679054,0.2041149139404297,0.6296427737855746,-0.2684848699327889,0.6517991761096961,0.3265330996001485,0.0876811996954203,1.5646251648683185,0.8696919013557435,16620,4.079567017374334,serve,serves_watch-right
2010,1761597280213411584,23.444411516189575,-1.6646679639816284,3.987489700317383,0.134966567158699,0.995558738708496,-0.0887436196208,0.031420063227415,-0.0558462738990783,0.0908798351883888,0.218183159828186,0.6144685485035399,-0.2794779029362814,0.6615150282840585,0.3266776726249667,0.0888605140834871,1.6023460834763184,0.8855748609912799,16630,4.323124970978118,serve,serves_watch-right
2020,1761597280223457536,23.4544575214386,-1.7395817041397097,4.083324909210205,0.1902384459972381,0.99334716796875,-0.0912353843450546,0.070268914103508,-0.0716704130172729,0.1262085139751434,0.2719247341156006,0.598223626382844,-0.2907767649914504,0.6712550416794669,0.327099550924232,0.0913624325029896,1.6414182199993868,0.9026994170482184,16640,4.44250801753802,serve,serves_watch-right
2030,1761597280233502720,23.464502573013306,-1.659031629562378,4.1485066413879395,0.2184008359909057,0.9894468784332277,-0.0947833433747291,0.1095943972468376,-0.0738127827644348,0.1911120861768722,0.3276309967041015,0.5813976227236255,-0.3019087145758751,0.6809172676568138,0.3273829137017122,0.0949258375022539,1.6811099594530654,0.9196837938324582,16650,4.473275335443792,serve,serves_watch-right
2040,1761597280243548672,23.47454857826233,-1.492753028869629,4.23520040512085,0.3036339581012726,0.9837414622306824,-0.0993699729442596,0.1495943367481231,-0.0579144358634948,0.269383430480957,0.3114500045776367,0.5641063088679478,-0.3124571649449502,0.6907732528785009,0.3270885823824728,0.0995342393725183,1.7217069002834344,0.9351401411193162,16660,4.50082521958446,serve,serves_watch-right
2050,1761597280253594624,23.484594583511353,-1.2781198024749756,4.338943004608154,0.4010713100433349,0.9760488867759703,-0.1052056327462196,0.1904217004776001,-0.0455221533775329,0.309246152639389,0.2262347936630249,0.5463249508088188,-0.322116633414258,0.7010361802628229,0.3260647283181336,0.1054006818326784,1.7634705807930926,0.9482801911209012,16670,4.541021341334632,serve,serves_watch-right
2060,1761597280263640576,23.494640588760376,-1.2239415645599363,4.449629783630371,0.4330456852912903,0.9662832617759703,-0.111882634460926,0.2319029122591018,-0.0293783545494079,0.3363241553306579,0.1860352754592895,0.5280480853779224,-0.3311439448900184,0.7115441944243178,0.3243666990909374,0.1121173750641913,1.8063363455234664,0.9595813299089764,16680,4.63516631097281,serve,serves_watch-right
2070,1761597280273686528,23.5046865940094,-1.3683011531829834,4.701418876647949,0.4382023513317108,0.9541640877723694,-0.1193320825695991,0.2744644582271576,-0.0394302010536193,0.3372123539447784,0.1919203996658325,0.5087343912041863,-0.340351152780039,0.7220757042376098,0.3224237808133441,0.119617132312101,1.850883875704521,0.9710400918054132,16690,4.9160562242732935,serve,serves_watch-right
2080,1761597280283732736,23.514732599258423,-1.7107912302017212,5.022173881530762,0.435952752828598,0.9391326308250428,-0.1280585825443267,0.3187957108020782,-0.0750122666358947,0.2751533389091491,0.2010712325572967,0.4876181155337746,-0.3504236338003018,0.7325306338926275,0.3206721957929195,0.1284112037089962,1.898048548947589,0.9844746473787438,16700,5.323447372930788,serve,serves_watch-right
2090,1761597280293777664,23.52477765083313,-2.061432123184204,5.375059604644775,0.3997018039226532,0.9207112193107604,-0.1384138762950897,0.3648734390735626,-0.1288562417030334,0.1955733001232147,0.1946511566638946,0.4643014494900218,-0.3617669068316695,0.7426718174229393,0.3193548389076184,0.1388596979039342,1.948104842590441,1.0009923341424911,16710,5.770661113255465,serve,serves_watch-right
2100,1761597280303823616,23.534823656082153,-2.3498597145080566,5.686089992523193,0.3500748872756958,0.8985567688941956,-0.1504499614238739,0.4122627377510071,-0.1582918763160705,0.1884901225566864,0.1954947710037231,0.4388412235681737,-0.3742278434864975,0.7523861273856144,0.3182562435141746,0.1510233932519523,2.0009486682883995,1.0200900251694138,16720,6.1624680532755205,serve,serves_watch-right
2110,1761597280313869824,23.544869661331177,-2.5367467403411865,5.985620975494385,0.3098028302192688,0.8724377155303955,-0.1641005873680114,0.4603516161441803,-0.1738139986991882,0.2140731215476989,0.1889709234237671,0.4114338236477656,-0.3875212896232168,0.7615793157042909,0.3170906210327387,0.1648461661310174,2.0563273056688245,1.040935636879445,16730,6.508357725303815,serve,serves_watch-right
2120,1761597280323915776,23.5549156665802,-2.725079298019409,6.248867034912109,0.2517822384834289,0.8421774506568909,-0.1793211847543716,0.5085092782974243,-0.1874073147773742,0.2548979520797729,0.1890159845352172,0.3822486390930626,-0.4013979194834537,0.7701521565131882,0.3156446428741322,0.1802964112422954,2.1140074657374903,1.0628541867915602,16740,6.821861234012382,serve,serves_watch-right
2130,1761597280333961728,23.564961671829224,-2.857492208480835,6.587357521057129,0.1885971277952194,0.8074440360069275,-0.1960599273443222,0.5564124584197998,-0.1991218328475952,0.2656095027923584,0.1883385181427002,0.3512261148605949,-0.4158540707662436,0.7779920534812548,0.3137419904310044,0.1973382435388149,2.174171695364958,1.0856781149096957,16750,7.18290398852506,serve,serves_watch-right
2140,1761597280344006656,23.57500672340393,-2.9865009784698486,6.880971431732178,0.1675873696804046,0.7677624821662903,-0.2144397050142288,0.60378497838974,-0.1967328786849975,0.2381366044282913,0.24484783411026,0.3182709553000142,-0.4306635999867968,0.7851250625089295,0.3111447820186644,0.2161181512730647,2.2372027513126973,1.108721535635541,16760,7.5030021634804385,serve,serves_watch-right
2150,1761597280354052864,23.58505272865295,-2.982679605484009,7.135103225708008,0.0922595858573913,0.7233175039291382,-0.2343506515026092,0.6495321989059448,-0.1993152499198913,0.2643799185752868,0.2759899497032165,0.2837074481899818,-0.4455583253709765,0.7913557171079456,0.3078053699093746,0.2365505606238414,2.3025000439309777,1.1314905795749115,16770,7.733989106642292,serve,serves_watch-right
2160,1761597280364098816,23.595098733901978,-2.8889644145965576,7.470243453979492,-0.0373248606920242,0.6740089058876038,-0.2542314827442169,0.6935985088348389,-0.1632970571517944,0.3298692405223846,0.3027548193931579,0.2479102318420074,-0.4605812575345467,0.7966581243738632,0.3028884494024763,0.2570529864694845,2.3705175317441824,1.153191057393085,16780,8.009497224904592,serve,serves_watch-right
2170,1761597280374144768,23.605144739151,-2.9870758056640625,7.805947303771973,-0.0946565940976142,0.6192542910575867,-0.2748656272888183,0.7355085611343384,-0.1394874453544616,0.3085265159606933,0.3085435032844543,0.2104204129977595,-0.4757460947757586,0.8008869618700716,0.296595534159502,0.27844992903236,2.4417963258361173,1.1742102358264748,16790,8.358492390907267,serve,serves_watch-right
2180,1761597280384190464,23.615190505981445,-3.1932458877563477,8.034035682678223,-0.247590571641922,0.5595921874046326,-0.2972817122936249,0.7736148834228516,-0.1650457382202148,0.3871865272521972,0.3042353391647339,0.1712227997186251,-0.4910366993891126,0.8035486344917795,0.2896122578379793,0.3018443854801229,2.515368655541542,1.1954562332946257,16800,8.648921883182073,serve,serves_watch-right
2190,1761597280394236672,23.62523651123047,-3.2793009281158447,8.357759475708008,-0.446596622467041,0.4955601394176483,-0.3211481273174286,0.8070216774940491,-0.1870579719543457,0.475139856338501,0.3783268332481384,0.130508166766283,-0.5066705426355661,0.8042361648379085,0.2818807691795532,0.3269415880263688,2.590898654063615,1.2175095190840164,16810,8.989182753405752,serve,serves_watch-right
2200,1761597280404281600,23.635281562805176,-3.612806797027588,8.659482955932617,-0.4860642254352569,0.4267970621585846,-0.3471181094646454,0.8350767493247986,-0.1707088053226471,0.3374287784099579,0.5098481178283691,0.0879327316217076,-0.5223590585091967,0.802919298785108,0.2733668438188136,0.3544963881521381,2.6691146585279073,1.2397494113933991,16820,9.395492347289961,serve,serves_watch-right
2210,1761597280414327552,23.6453275680542,-4.129034042358398,8.83795166015625,-0.4923053383827209,0.354092538356781,-0.3780768513679504,0.8553810119628906,-0.1857880353927612,0.2499029636383056,0.5947381258010864,0.0430296897860574,-0.537422208527621,0.7992921100464405,0.2654392976592548,0.387718071546322,2.7491110130122687,1.2619039910528984,16830,9.767326973968531,serve,serves_watch-right
2220,1761597280424373504,23.655373573303223,-4.438023567199707,9.125602722167969,-0.5309423208236694,0.2783339321613312,-0.4135206043720245,0.8669085502624512,-0.1802810430526733,0.3257674276828766,0.7112467288970947,-0.0039571525606075,-0.5517130106694436,0.793137454295746,0.2579339728699497,0.4263173871715599,2.8309239999653677,1.2833081567411628,16840,10.161425981322754,serve,serves_watch-right
2230,1761597280434419712,23.66541957855225,-4.95120906829834,9.151083946228027,-0.5616520047187805,0.2005928754806518,-0.4530446827411651,0.8686268925666809,-0.1459969580173492,0.2966421544551849,0.7935433387756348,-0.0527611361949418,-0.5649008627514728,0.7843471615977338,0.2508041515366527,0.4701776568691332,2.9146402347043523,1.3029130756573442,16850,10.419801418612385,serve,serves_watch-right
2240,1761597280444465664,23.67546558380127,-5.148148536682129,9.188763618469238,-0.5979238748550415,0.1235200092196464,-0.4958029687404632,0.8596056699752808,-0.1755525022745132,0.3292075395584106,0.96561998128891,-0.1023990070500844,-0.5766123807409509,0.7728654519251593,0.2443594097452561,0.5187591956056046,2.9988757662139904,1.3198941568742448,16860,10.549612464539534,serve,serves_watch-right
2250,1761597280454510592,23.685510635375977,-5.60164737701416,9.196085929870604,-0.6384361982345581,0.0478971563279628,-0.5409770607948303,0.8396726250648499,-0.1458585560321808,0.301642894744873,1.242801308631897,-0.152770580491289,-0.5866930721591918,0.758701225758814,0.2383798459987858,0.5715983902351092,3.084611748547107,1.3332244989133415,16870,10.786753475684419,serve,serves_watch-right
2260,1761597280464556800,23.695556640625,-6.225009441375732,8.9804105758667,-0.7287769913673401,-0.0234616827219724,-0.5897815823554993,0.8072223663330078,-0.1305910497903823,0.3040757775306701,1.3650343418121338,-0.203717681663695,-0.594737319077444,0.741551552106158,0.23428212265603,0.630788319994018,-3.112536124885221,1.342458734120923,16880,10.951238859576659,serve,serves_watch-right
2270,1761597280474602752,23.705602645874023,-6.671502113342285,8.86533260345459,-0.883306622505188,-0.0889762416481971,-0.6410855054855347,0.762294590473175,-0.0995460897684097,0.3346737027168274,1.4697765111923218,-0.2549400973390439,-0.6006980664142607,0.7213245656332825,0.2320740521951875,0.6959117898850844,-3.025396835693248,1.3466255457250291,16890,11.130287202384629,serve,serves_watch-right
2280,1761597280484648704,23.715648651123047,-7.017246246337891,8.840085983276367,-1.0045183897018433,-0.147668108344078,-0.6930515766143799,0.7056018114089966,-0.0239779949188232,0.1571323871612548,1.5724897384643557,-0.3061211017879549,-0.604641522285184,0.6980039618852585,0.2312770161467847,0.7657136061907869,-2.9352904683291157,1.3443667468406606,16900,11.331280698522638,serve,serves_watch-right
2290,1761597280494694656,23.72569465637207,-6.695131778717041,9.02256965637207,-0.9982969760894777,-0.2011016309261322,-0.7411565780639648,0.6405036449432373,-0.0501343607902526,0.0699988007545471,1.6935112476348877,-0.3566441285472019,-0.607037381585233,0.6721290434798091,0.2292446371397629,0.834791556902621,-2.8373653077019214,1.3333601820304686,16910,11.27954562874508,serve,serves_watch-right
2300,1761597280504740608,23.735740661621097,-6.504838466644287,8.771081924438477,-1.2447811365127563,-0.2468704134225845,-0.7837763428688049,0.5698680281639099,-0.1689163148403167,0.1671534776687622,1.7454242706298828,-0.4051569512628489,-0.6087629125176368,0.6436938061313096,0.2256409016748888,0.900723360891966,-2.7327917688043546,1.3152429738460731,16920,10.99064518944018,serve,serves_watch-right
2310,1761597280514785792,23.7457857131958,-6.086400985717773,8.744763374328613,-1.5285505056381226,-0.2826010286808014,-0.8210936188697815,0.4959249496459961,-0.2263253033161163,0.246020495891571,1.9298866987228391,-0.4506266485601891,-0.6099639970918244,0.6131120644888852,0.2212985157234316,0.9633243916940408,-2.6236401261439206,1.2904320608912458,16930,10.763439509758578,serve,serves_watch-right
2320,1761597280524831744,23.755831718444824,-5.797353744506836,8.928000450134277,-2.0563085079193115,-0.3083906173706054,-0.8538792133331299,0.4192675650119781,-0.1673478782176971,-0.045672059059143,1.941083908081055,-0.4936973471975431,-0.6112364687257786,0.5796755717329414,0.2159376722401907,1.0233936516693825,-2.507406411802848,1.259287671133182,16940,10.84190514422104,serve,serves_watch-right
2330,1761597280534877696,23.765877723693848,-5.429133892059326,8.956925392150879,-2.5820024013519287,-0.3223002851009369,-0.8826378583908081,0.3421594798564911,-0.223521888256073,-0.2578651905059814,1.885730504989624,-0.5337470596629679,-0.6133288745541327,0.5430538052320164,0.2098437384631749,1.081444771926112,-2.3860733214259935,1.2244034889903777,16950,10.787434528146697,serve,serves_watch-right
2340,1761597280544923904,23.77592372894287,-5.605237007141113,8.836813926696777,-3.22373628616333,-0.3234570920467376,-0.908743977546692,0.2637414634227752,-0.4481340646743774,-0.1927267909049987,1.9774084091186523,-0.5711746941422668,-0.6150701997979359,0.5035468053507812,0.2046671094780431,1.1402647077146026,-2.2548471037035847,1.1783937085706384,16960,10.949905840874273,serve,serves_watch-right
2350,1761597280554969856,23.785969734191895,-6.0823493003845215,8.928512573242188,-4.064269065856934,-0.3095994591712951,-0.9333851933479308,0.1814946830272674,-0.5273145437240601,-0.2808482050895691,1.8577051162719729,-0.6070557303303675,-0.6159151469473726,0.4597780692685139,0.2018316777413845,1.2037327957737969,-2.101024961925317,1.1092327540909612,16970,11.542599049699053,serve,serves_watch-right
2360,1761597280565015808,23.79601573944092,-6.358495712280273,9.2406644821167,-4.719314098358154,-0.2803365290164947,-0.955158531665802,0.0953074917197227,-0.7206553220748901,-0.5792499780654907,1.716887354850769,-0.6418416761016468,-0.6153734733830015,0.4110586729744982,0.2009614158517207,1.2701947865944867,-1.8985126740313696,0.992438802121515,16980,12.16931688111957,serve,serves_watch-right
2370,1761597280575060480,23.80606055259705,-6.519068241119385,9.523972511291504,-5.185510158538818,-0.2372720390558242,-0.9714071750640868,0.0083699552342295,-1.0789663791656494,-0.8658577799797058,1.679297924041748,-0.6748804841395446,-0.6130526441957027,0.3582616820877387,0.2008763818024043,1.331087521891024,-1.606057479235956,0.7868908103586978,16990,12.652818608219944,serve,serves_watch-right
2380,1761597280585106688,23.81610655784607,-6.549996376037598,9.742194175720217,-5.806519985198975,-0.1801224201917648,-0.9807043075561525,-0.075993537902832,-1.4702377319335938,-0.9618616104125975,1.7262163162231443,-0.7053592798380159,-0.6092188588828182,0.3014226469078062,0.201159318862124,1.3740321253355428,-1.1715548509559388,0.4412194119341762,17000,13.096887959437451,serve,serves_watch-right
2390,1761597280595152640,23.826152563095093,-6.24434757232666,9.945237159729004,-6.659449577331543,-0.1073210835456848,-0.9821931719779968,-0.1542036980390548,-1.8122955560684204,-0.9735410809516908,1.7692091464996338,-0.7322602809763894,-0.6043279444938358,0.2401788599337746,0.2022294332149153,1.381799346480662,-0.6080158516381534,-0.0312791103822293,17010,13.499921756821324,serve,serves_watch-right
2400,1761597280605198592,23.836198568344116,-4.398862361907959,10.158551216125488,-7.732086658477783,-0.017738576978445,-0.9767255187034608,-0.2137580662965774,-2.1390912532806396,-1.0081377029418943,1.6912360191345217,-0.7517647602302684,-0.6019686547669224,0.1753701892893782,0.2042761512488205,1.354623661778861,-0.0827946551372475,-0.4640459120461926,17020,13.503011404270724,serve,serves_watch-right
2410,1761597280615244544,23.84624457359314,-2.0836055278778076,9.94731903076172,-8.854907035827637,0.0863382667303085,-0.9664721488952636,-0.2418207377195358,-2.5656626224517822,-1.1305584907531738,1.6211848258972168,-0.7601639024843756,-0.6060403534771616,0.1086495411280208,0.207511914771811,1.3111161497151116,0.3429275625279471,-0.7977531042052072,17030,13.47961225364836,serve,serves_watch-right
2420,1761597280625289728,23.856289625167847,0.4682214558124542,9.437700271606444,-10.430325508117676,0.2024945020675659,-0.9504342079162598,-0.23594631254673,-2.989649772644043,-0.987813413143158,1.7391048669815063,-0.7562230125722286,-0.6167077439544314,0.041211712626937,0.2147086693925858,1.2546294047814066,0.7092485133332335,-1.0778272090126566,17040,14.074129030020071,serve,serves_watch-right
2430,1761597280635335680,23.86633563041687,2.214073896408081,8.053630828857422,-12.237401008605955,0.3286551237106323,-0.9233099818229676,-0.1987067759037017,-3.26656723022461,-0.5120384693145752,2.018988847732544,-0.7393298202621361,-0.632440195810382,-0.025807118099403,0.2296621672219608,1.176611531925437,1.026997103934623,-1.3220523232955457,17050,14.81610867237779,serve,serves_watch-right
2440,1761597280645381632,23.876381635665897,2.6737992763519287,6.273260116577148,-14.101781845092772,0.4603316783905029,-0.8752294778823853,-0.1485533118247985,-3.460407972335815,-0.2700951695442199,2.2083983421325684,-0.713435225268832,-0.6460651059979109,-0.0912317057829085,0.2555128364037164,1.0659100006794822,1.2586376905623016,-1.4991502371683303,17060,15.664075021112664,serve,serves_watch-right
2450,1761597280655427584,23.886427640914917,3.2499983310699463,4.761159896850586,-15.912741661071776,0.5937367677688599,-0.7990798354148865,-0.0945946648716926,-3.4048633575439453,-0.3722458481788635,2.345632314682007,-0.6797636366694869,-0.6545898114795049,-0.1556112074273011,0.2919225758888144,0.925763203011155,1.412803307701555,-1.616407753566713,17070,16.9247298320341,serve,serves_watch-right
2460,1761597280665473792,23.89647364616394,4.164053440093994,2.8325366973876953,-17.210437774658203,0.7209966778755188,-0.6916636228561401,-0.042015716433525,-3.628986120223999,-0.6093312501907349,2.4927451610565186,-0.6379570804436566,-0.6570995724195144,-0.2172838990809372,0.3376665450097666,0.7637900324457807,1.5125876623603616,-1.6979659632662132,17080,17.93214358601304,serve,serves_watch-right
2470,1761597280675518720,23.906518697738647,7.486617565155029,0.4416362941265106,-18.25484848022461,0.8326444029808044,-0.5537689924240112,0.0065896129235625,-4.250002861022949,-0.0308868288993835,2.555910348892212,-0.5845382935368223,-0.6558547404818589,-0.2704613945771039,0.3937261352135824,0.5868838407875708,1.5787102401760529,-1.7768109329167128,17090,19.73534844433045,serve,serves_watch-right
2480,1761597280685564672,23.91656470298767,10.35702896118164,-3.012272834777832,-18.89902114868164,0.9212954640388488,-0.3870030045509338,0.0379907600581646,-4.817383289337158,0.8797550797462463,2.353015661239624,-0.5168259430674872,-0.6508271285123531,-0.3089003554028542,0.462488427991151,0.3973791114397839,1.6120092181838603,-1.8735790022258905,17100,21.760396065150367,serve,serves_watch-right
2490,1761597280695610880,23.926610708236694,12.378033638000488,-7.250239849090576,-18.54216766357422,0.9789014458656312,-0.2030380964279174,0.022969800978899,-5.274769306182861,1.95903480052948,2.2557015419006348,-0.44064333845713,-0.6351487953323075,-0.3287414006951979,0.542539027486624,0.2044596468545005,1.5942568983144456,-1.986614868588745,17110,23.443414347677898,serve,serves_watch-right
2500,1761597280705656832,23.93665671348572,12.52003288269043,-11.52585506439209,-16.779525756835938,0.9979586601257324,-0.0289495941251516,-0.0569258444011211,-5.327762126922607,2.5049779415130615,1.889582633972168,-0.3656354363665062,-0.6032708327231923,-0.3280264923892608,0.6283102198943353,0.0289536384112058,1.5138157877823286,-2.114881699321904,17120,23.898724714372168,serve,serves_watch-right
2510,1761597280715702784,23.94670271873474,12.792229652404783,-13.734503746032717,-14.34779930114746,0.9755667448043824,0.1112024411559104,-0.1894829273223877,-5.351177215576172,2.0753819942474365,1.2590782642364502,-0.2970869397775323,-0.5559132065770709,-0.3101919514034499,0.7116747357092104,-0.111432916176842,1.3789563373692857,-2.258777668464099,17130,23.62492491873061,serve,serves_watch-right
2520,1761597280725748736,23.956748723983765,13.96518898010254,-14.49874782562256,-10.7595796585083,0.9176236391067504,0.1956801116466522,-0.3459424078464508,-6.069540023803711,2.0184617042541504,0.9148815870285034,-0.2345975763218694,-0.5018248525949516,-0.2742273090962278,0.7860885497463275,-0.1969509165138937,1.2102750282434231,-2.4250870245916087,17140,22.82561600896585,serve,serves_watch-right
2530,1761597280735793664,23.966793537139893,13.880338668823242,-13.706496238708496,-6.760310173034668,0.8388146758079529,0.2131592780351638,-0.5009521245956421,-7.52864933013916,3.0458433628082275,0.2653259634971618,-0.1833604174870534,-0.4471273320981143,-0.2227130362618409,0.8466728974580702,-0.2148074165491856,1.0324276775922263,-2.592816512994197,17150,20.645426475096027,serve,serves_watch-right
2540,1761597280745839616,23.976839542388916,13.409936904907228,-12.257318496704102,-3.0789761543273926,0.7551625370979309,0.1749943792819976,-0.6317486763000488,-7.883092403411865,3.343255043029785,-0.6125749945640564,-0.1456701117347443,-0.3969276446322798,-0.1630156526443063,0.8914339275686671,-0.1759000583505882,0.8741490978550995,-2.7352853682328657,17160,18.4268380001061,serve,serves_watch-right
2550,1761597280755885568,23.98688554763794,13.19714641571045,-11.202701568603516,0.7469918131828308,0.6728859543800354,0.0913315340876579,-0.7340865135192871,-6.822299957275391,3.2439193725585938,-1.1390366554260254,-0.1228440679667603,-0.3516911182029126,-0.0962813763345609,0.923012713081915,-0.091458985404414,0.7419275078234078,-2.8413710013164177,17170,17.326949896674055,serve,serves_watch-right
2560,1761597280765930752,23.996930599212646,11.181986808776855,-10.586814880371094,3.354471445083618,0.5894160270690918,-0.0173652116209268,-0.8076430559158325,-5.365218639373779,3.81050181388855,-1.4592636823654177,-0.1162305285090397,-0.3087831561487438,-0.0288347553942809,0.9435635264740798,0.0173660847647755,0.6304457506904978,-2.9021256790246537,17180,15.75975751649713,serve,serves_watch-right
2570,1761597280775976704,24.00697660446167,9.130608558654783,-9.641176223754885,4.295650959014893,0.500604510307312,-0.1229288280010223,-0.8569034934043884,-4.025918960571289,3.65610146522522,-2.544219493865967,-0.1202870797219417,-0.265698740451717,0.0308614392863527,0.956024439205971,0.1232405624930684,0.5287221313865339,-2.9246678724785764,17190,13.956106505417692,serve,serves_watch-right
2580,1761597280786021376,24.0170214176178,9.209022521972656,-9.114998817443848,4.455872535705566,0.4133341014385223,-0.2220069915056228,-0.8831012845039368,-2.6930735111236572,2.6945106983184814,-1.9926464557647705,-0.1274640936622134,-0.2261668743322161,0.0854278290069944,0.9619270160358464,0.223872340413888,0.4377611556317144,-2.9281071690280123,17200,13.701974284994755,serve,serves_watch-right
2590,1761597280796067584,24.02706742286682,13.705628395080566,-9.717196464538574,6.014048099517822,0.3144446313381195,-0.3399646878242492,-0.8863117694854736,-1.0974494218826294,2.5337207317352295,0.5324451923370361,-0.1348489484306226,-0.1846261089915476,0.1508552400202178,0.9617544650759168,0.3468793346125259,0.3409257366163869,-2.9232833312283857,17210,17.844801242316866,serve,serves_watch-right
2600,1761597280806113536,24.037113428115845,18.094350814819336,-8.368657112121582,8.343690872192383,0.2035172879695892,-0.5004534125328064,-0.8415029048919678,-0.3358109891414642,4.020915508270264,1.2241322994232178,-0.1509538899525137,-0.1457507225484573,0.2408428645560255,0.9476097864576296,0.5241223820969017,0.2372932811580395,-2.889575749825189,17220,21.61150458993364,serve,serves_watch-right
2610,1761597280816159488,24.047159433364868,16.126344680786133,-6.352885723114014,7.887138843536377,0.0959694162011146,-0.6525998115539551,-0.7516005039215088,-0.428244799375534,3.959484577178955,1.3789045810699463,-0.1668981242786096,-0.1126341917890093,0.3339360392551098,0.920839448544979,0.7110105849708126,0.1269995150284801,-2.830201319314029,17230,19.042718002209806,serve,serves_watch-right
2620,1761597280826205440,24.05720543861389,12.634794235229492,-3.4971985816955566,10.380291938781738,-0.0027271402068436,-0.7587206363677979,-0.6514104604721069,-2.513065814971924,3.2395098209381104,1.4103368520736694,-0.1911026536251305,-0.0863327641202576,0.4084622626008063,0.8883609019320389,0.8613469083132891,-0.0041864912825301,-2.715890888632938,17240,16.72180863485583,serve,serves_watch-right
2630,1761597280836250624,24.0672504901886,9.608601570129396,-2.046710252761841,11.227418899536133,-0.107267290353775,-0.8193881511688232,-0.5631135106086731,-4.463991165161133,1.7645480632781982,0.7863343358039856,-0.2303436003301165,-0.0621745621886385,0.4632251839263204,0.8535212831328681,0.9603428155597256,-0.1882344840962045,-2.516153681749659,17250,14.918752700474483,serve,serves_watch-right
2640,1761597280846296576,24.077296495437626,7.511948585510254,-0.8119896054267883,11.024669647216797,-0.2080186158418655,-0.8470418453216553,-0.4891303777694702,-4.240681171417236,0.2130695581436157,-0.185964286327362,-0.2729618082786478,-0.0409179872341267,0.5037464905120452,0.8185702235865904,1.0103949751242425,-0.4021099408939798,-2.273367486250881,17260,13.365329756535527,serve,serves_watch-right
2650,1761597280856342528,24.08734250068665,6.661285877227783,0.0909522175788879,10.638724327087402,-0.3016940653324127,-0.8516332507133484,-0.4286043047904968,-3.942858457565307,0.6617069840431213,-0.6343077421188354,-0.3140585544073857,-0.0215172448210343,0.5340738367996795,0.7846460861852572,1.019093500937348,-0.613337857669464,-2.02989092961255,17270,12.552428336851724,serve,serves_watch-right
2660,1761597280866388480,24.09738850593567,5.83321475982666,1.1223169565200806,11.381184577941896,-0.3932399451732635,-0.8382547497749329,-0.3777450025081634,-4.115777969360352,0.94398295879364,-0.2377945482730865,-0.3580264875835945,-0.0041099437684418,0.5577729000821562,0.7487920168968553,0.9940746054715974,-0.8054930717687248,-1.7953403070917462,17280,12.838121053422675,serve,serves_watch-right
2670,1761597280876434688,24.107434511184692,4.962121486663818,1.7538374662399292,10.79306411743164,-0.4801942408084869,-0.8089234828948975,-0.3391998410224914,-4.34710693359375,-0.0094206929206848,-0.364093005657196,-0.4029270935149697,0.0119953999106935,0.5746792099272925,0.7122147307489214,0.9423186735994188,-0.955801000929216,-1.5959513296358432,17290,12.007865278615848,serve,serves_watch-right
2680,1761597280886479616,24.1174795627594,3.3275225162506104,3.1020028591156006,10.71066188812256,-0.5572795867919922,-0.7667719125747681,-0.3185912668704986,-4.43974494934082,-0.1571325063705444,-0.6319854855537415,-0.4477542934698555,0.0258999858182796,0.5831239686450864,0.677356436033742,0.8737970916452642,-1.0514530210360609,-1.4442202360571663,17300,11.636713707735415,serve,serves_watch-right
2690,1761597280896525568,24.127525568008423,1.9855483770370483,4.013232231140137,10.19520378112793,-0.6240639686584473,-0.7125828266143799,-0.3205771744251251,-4.512242794036865,-0.8391444087028503,-0.9975380897521972,-0.493675375139746,0.0386208049729045,0.5815667178453033,0.6454247544514952,0.793172768228578,-1.0962545824833052,-1.3350475848671983,17310,11.135107338384383,serve,serves_watch-right
2700,1761597280906571520,24.137571573257446,1.0424360036849976,4.437911033630371,8.706419944763184,-0.6753500699996948,-0.6555367112159729,-0.3378962278366089,-4.193943023681641,-1.2996940612792969,-1.4219914674758911,-0.5362676039215639,0.048970749193138,0.5732833100250327,0.6175476699330107,0.7148930979965276,-1.1068867425305735,-1.2578687851477883,17320,9.827689220705297,serve,serves_watch-right
2710,1761597280916617728,24.14761757850647,-0.1311661154031753,5.1119704246521,8.233060836791992,-0.7114431262016296,-0.59865403175354,-0.368051677942276,-3.843427419662475,-0.6047608852386475,-1.8365687131881712,-0.575582065596779,0.0569860702336344,0.559219771952081,0.5939116930871825,0.6418196720931748,-1.0933801503449163,-1.2029563362564104,17330,9.691890265302522,serve,serves_watch-right
2720,1761597280926663680,24.157663583755493,-1.4327868223190308,5.399650573730469,7.4817280769348145,-0.7358834147453308,-0.5379935503005981,-0.411142885684967,-3.597810983657837,-1.2055671215057373,-1.92859411239624,-0.6130582510633533,0.065719134643489,0.5386181832203473,0.574222061662266,0.5680550475639613,-1.0612931852069958,-1.1661030375758876,17340,9.33731007377358,serve,serves_watch-right
2730,1761597280936709632,24.167709589004517,-1.954119324684143,5.531360626220703,7.026177406311035,-0.7487016916275024,-0.4767074882984161,-0.4606470763683319,-3.384446620941162,-1.4674301147460938,-1.7006993293762207,-0.6473457605106131,0.0747037857118411,0.513902520493205,0.5579130441986941,0.4969054011224282,-1.0192308646854376,-1.1409846745119905,17350,9.153234491553484,serve,serves_watch-right
2740,1761597280946754560,24.177754402160645,-2.123493909835815,5.6540069580078125,6.917365550994873,-0.7525614500045776,-0.4138818681240082,-0.5122039914131165,-3.0518360137939453,-1.4070104360580444,-1.5527220964431765,-0.679928410731706,0.0836545619507592,0.4867236552741211,0.5420325175691695,0.4267141911745105,-0.9731998181457064,-1.1178139252276496,17360,9.182971590525648,serve,serves_watch-right
2750,1761597280956800512,24.187800407409668,-1.1256167888641355,5.604464530944824,6.066882133483887,-0.7476618885993958,-0.3546443581581116,-0.5614526271820068,-2.719775915145874,-1.7546849250793457,-1.4863531589508057,-0.7101515471543745,0.0904482236866143,0.4594483671858969,0.5257481449126467,0.3625336782896879,-0.9266909821862844,-1.0919391910700935,17370,8.335712006516143,serve,serves_watch-right
2760,1761597280966846464,24.19784641265869,0.8412911295890808,4.847113609313965,4.6101484298706055,-0.7342820167541504,-0.3164100646972656,-0.600595235824585,-2.7217421531677246,-1.278179168701172,-1.3466551303863523,-0.7347383225219376,0.0888808988625676,0.437952686610945,0.5103501961932264,0.321942730042067,-0.885214433925438,-1.0605670890659156,17380,6.742087929696581,serve,serves_watch-right
2770,1761597280976892416,24.207892417907715,0.5056694149971008,5.1045756340026855,5.449529647827148,-0.7195258736610413,-0.2831029593944549,-0.6341413855552673,-2.964174747467041,-0.8536920547485352,-1.003523349761963,-0.7587336177667776,0.0848866402528262,0.419193953616671,0.4913187147324016,0.2870279041672171,-0.8483911449207792,-1.0189650602519813,17390,7.483967353153306,serve,serves_watch-right
2780,1761597280986938368,24.21793842315674,-0.18750661611557,5.584339141845703,4.407143592834473,-0.6975097060203552,-0.2486128062009811,-0.6720654368400574,-2.6198577880859375,-1.6056352853775024,-1.1922686100006104,-0.7817635692321596,0.0815830073082778,0.3966251260616263,0.4742135939717442,0.2512478327877338,-0.8039742302404177,-0.983231551416905,17400,7.116383704529925,serve,serves_watch-right
2790,1761597280996983552,24.227983474731445,-0.3689656257629394,5.817030429840088,3.956529140472412,-0.6675599813461304,-0.2180075198411941,-0.7119244337081909,-2.59330415725708,-1.5134073495864868,-1.3501025438308716,-0.8024307524416063,0.0773868874473906,0.371549511974728,0.4605076124335427,0.2197724179339975,-0.7532490783232396,-0.9547835926072936,17410,7.04472153417632,serve,serves_watch-right
2800,1761597281007029504,24.23802947998047,-0.3993180096149444,5.951684474945068,3.4620189666748047,-0.6318871974945068,-0.1908155381679535,-0.7512044310569763,-2.474619150161743,-1.5689042806625366,-1.3272258043289185,-0.8213739448278318,0.0722508123143227,0.3452211140627661,0.4482712640635808,0.1919928857673419,-0.6993427336296958,-0.928962555131466,17420,6.896925277811923,serve,serves_watch-right
2810,1761597281017075456,24.248075485229492,-0.2279039174318313,6.067312240600586,3.2707836627960205,-0.5905680060386658,-0.1675881147384643,-0.7893944382667542,-2.2723469734191895,-1.7435904741287231,-1.229770541191101,-0.83884514922896,0.0656887007172722,0.3177857177752481,0.4370766033643501,0.1683826655907779,-0.6423018724607117,-0.9045505722844074,17430,6.896538536783205,serve,serves_watch-right
2820,1761597281027121664,24.258121490478516,0.0436110869050025,5.863994598388672,3.0899949073791504,-0.547088623046875,-0.1484114080667495,-0.8238131403923035,-2.316497802734375,-1.8506120443344116,-0.961724579334259,-0.8549335003948833,0.058048149712542,0.2910736017000854,0.4254353822831572,0.1489616911798675,-0.5862187840684997,-0.8784572315404968,17440,6.62845405086749,serve,serves_watch-right
2830,1761597281037167616,24.26816749572754,0.2408277541399002,5.547821998596191,2.7723965644836426,-0.5031182169914246,-0.1342498660087585,-0.8537265658378601,-2.2551214694976807,-1.784573316574097,-0.6740291714668274,-0.8691351611535973,0.0494425704453351,0.2658799530556645,0.4140861622586486,0.1346564368629364,-0.5325295990917704,-0.8524587864009076,17450,6.206650436913023,serve,serves_watch-right
2840,1761597281047212544,24.27821254730225,0.3525543510913849,5.244384765625,2.3492746353149414,-0.4594068527221679,-0.1243781819939613,-0.8794745206832886,-2.0861101150512695,-1.6698570251464844,-0.3576012849807739,-0.8813623501923769,0.0403409853385171,0.2421473534061277,0.4036555171183236,0.1247011192336429,-0.4813792254234328,-0.8283128761229698,17460,5.757339442183968,serve,serves_watch-right
2850,1761597281057258496,24.28825855255127,0.5093692541122437,4.807445526123047,2.021006345748902,-0.4170424044132232,-0.1187799647450447,-0.9010921120643616,-1.838664412498474,-1.7304327487945557,-0.1191868185997009,-0.8916469921329329,0.0307985214437083,0.2202394146363622,0.3943498963064586,0.1190610556878069,-0.4334628009642614,-0.8065709706271775,17470,5.239795432384044,serve,serves_watch-right
2860,1761597281067304704,24.298304557800293,0.3194713592529297,4.620048522949219,1.5203349590301514,-0.3762480616569519,-0.1156333535909652,-0.919274926185608,-1.6388123035430908,-1.6706215143203735,-0.115087866783142,-0.9001572403626357,0.0215280048331029,0.1997475804451655,0.3864640938084397,0.1158926098089148,-0.3884874289618759,-0.7882408118638269,17480,4.874251603214321,serve,serves_watch-right
2870,1761597281077350656,24.308350563049316,-0.1008678674697876,4.585068225860596,1.050204157829285,-0.3347392380237579,-0.1121284812688827,-0.9356157183647156,-1.4732747077941897,-1.5439841747283936,-0.1599957942962646,-0.9069971144018854,0.0133480802406831,0.1789244450133548,0.3810038928183341,0.1123647804236948,-0.3435838259143976,-0.7758624653590843,17490,4.704886155435246,serve,serves_watch-right
2880,1761597281087396608,24.31839656829834,-0.3305943012237549,4.469820022583008,0.8068150877952576,-0.2928515076637268,-0.1069723293185234,-0.9501551985740662,-1.4621992111206057,-1.399253249168396,-0.0669651627540588,-0.91256075637331,0.0065926922251298,0.1577305631468361,0.3772407642020146,0.10717740520698,-0.2989757903718207,-0.7678295672246005,17500,4.554067875227559,serve,serves_watch-right
2890,1761597281097441536,24.328441381454468,-0.213893249630928,4.273654460906982,0.7634305953979492,-0.2515848278999328,-0.1021748334169387,-0.9624268412590028,-1.4843924045562744,-1.1555613279342651,-0.0345824360847473,-0.9172530510816272,0.0001871590575699,0.1370640477299096,0.3739791092007341,0.1023534559820282,-0.2556852340555663,-0.7611132768168968,17510,4.346573253432812,serve,serves_watch-right
2900,1761597281107487488,24.33848738670349,-0.1268354505300521,4.065164089202881,0.786835253238678,-0.2119136601686477,-0.0987059324979782,-0.9722909927368164,-1.4548190832138062,-0.9386170506477356,-0.0839529037475586,-0.9213784131168868,-0.006312223844527,0.117535827963244,0.3704148910960823,0.0988669219355491,-0.2145969027067336,-0.7538396313584755,17520,4.142554286837412,serve,serves_watch-right
2910,1761597281117533440,24.348533391952515,0.0365161933004856,3.8870773315429688,0.5966237783432007,-0.1735735386610031,-0.0968579873442649,-0.980046272277832,-1.3740185499191284,-0.668248176574707,-0.1463117003440857,-0.9248471257120804,-0.013070037059425,0.0990253718374098,0.3669888451912117,0.0970100741081366,-0.1752898032227373,-0.7469761840534317,17530,3.932767924331778,serve,serves_watch-right
2920,1761597281127579392,24.358579397201535,0.2179563492536544,3.6444034576416016,0.2970766425132751,-0.1368204355239868,-0.0974508300423622,-0.98579078912735,-1.291814208030701,-0.333274245262146,-0.1055024862289428,-0.9273631934550308,-0.0203924588938158,0.0817847607903069,0.3645446783725732,0.0976057361183175,-0.1379115168029639,-0.742338065434124,17540,3.6629818541424695,serve,serves_watch-right
2930,1761597281137625344,24.36862540245056,0.2843567132949829,3.4453372955322266,0.0655419528484344,-0.1018622815608978,-0.0998232886195182,-0.989777445793152,-1.1797233819961548,-0.0951840355992317,-0.0341178178787231,-0.9289703530043072,-0.0280122338824787,0.0657768476793284,0.3631841374286891,0.0999898174589362,-0.1025532898911821,-0.7402307454923086,17550,3.457673143598803,serve,serves_watch-right
2940,1761597281147670528,24.37867045402527,0.1206931173801422,3.2692251205444336,-0.1583871990442276,-0.0683138966560363,-0.1022001504898071,-0.9924154281616212,-1.0458524227142334,-0.0233033895492553,-0.0085153579711914,-0.9298306560127064,-0.0352560436674798,0.0504906734511205,0.3627981626881333,0.10237890021021,-0.0687275733599322,-0.7404960106465895,17560,3.2752841437351323,serve,serves_watch-right
2950,1761597281157716480,24.388716459274292,-0.3654794692993164,3.159461259841919,-0.3779506981372833,-0.0360536910593509,-0.1011665761470794,-0.9942160248756408,-0.9735746383666992,0.0018471181392669,0.0153341889381408,-0.9300631820329668,-0.0406113751652303,0.0352521758127495,0.3634426302434715,0.1013399441387444,-0.036247555923566,-0.7432135318221815,17570,3.2029076516727195,serve,serves_watch-right
2960,1761597281167762432,24.398762464523315,-0.7506540417671204,3.221376419067383,-0.6108667254447937,-0.0038207084871828,-0.0955017432570457,-0.9954219460487366,-0.9154450297355652,0.0267761573195457,0.0319514870643615,-0.9297087770037292,-0.0437970405091537,0.0192575669936724,0.3651747847484179,0.0956475126998834,-0.0038382614989359,-0.7483569457955856,17580,3.363614972020483,serve,serves_watch-right
2970,1761597281177808640,24.40880846977234,-0.8521385788917542,3.3980000019073486,-0.8020942211151123,0.0299929920583963,-0.0872799307107925,-0.9957321882247924,-0.8977145552635193,-0.0420535653829574,0.0564011335372924,-0.9287697061317854,-0.0461451692062712,0.0021256112527748,0.3677676221092731,0.087391127394964,0.0301124391633417,-0.755376605224957,17590,3.5938696846358047,serve,serves_watch-right
