t_rel_ms,time,seconds_elapsed,rotationRateX,rotationRateY,rotationRateZ,gravityX,gravityY,gravityZ,accelerationX,accelerationY,accelerationZ,quaternionW,quaternionX,quaternionY,quaternionZ,pitch,roll,yaw,timestamp,omega_mag,label,session_id
0,1761597292137822976,35.36882281303406,0.1249435245990753,0.1811552196741104,0.1758426278829574,0.1666431277990341,0.7315263152122498,-0.6611348986625671,0.0418987274169921,0.0199537873268127,-0.0661600232124328,0.0156280527906499,-0.0982948518198023,-0.3997132389203049,0.9112207345319716,-0.8205578552304891,0.2469129506105899,-3.068048343750032,28500,0.28168906215044837,serve,serves_watch-right
10,1761597292147868928,35.37886881828308,0.1208475828170776,0.202157437801361,0.2011780738830566,0.1693260371685028,0.7301861047744751,-0.6619341969490051,0.0273902863264083,0.0148700475692749,-0.0597760081291198,0.0151663271429278,-0.0995262553189953,-0.3989077842360953,0.9114477698285572,-0.8185943099393039,0.2504346219775907,-3.0657686774836246,28510,0.30974890692694645,serve,serves_watch-right
20,1761597292157914880,35.388914823532104,0.1049712523818016,0.2185629457235336,0.2155840992927551,0.1722850352525711,0.7289177775382996,-0.6625682711601257,0.0180836170911788,0.0118353962898254,-0.0504139065742492,0.0149625402707075,-0.1010279261283545,-0.3981321641735688,0.9116250329007192,-0.8167397896325811,0.2543924931661999,-3.063856784118534,28520,0.3244460339375728,serve,serves_watch-right
30,1761597292167960832,35.39896082878113,0.0828403830528259,0.2312297374010086,0.2171316593885421,0.1753867119550705,0.7277786731719971,-0.6630066633224487,0.0087410807609558,0.0024154186248779,-0.0426512956619262,0.0147952153122937,-0.102631048328717,-0.3974462842026162,0.911748068916789,-0.8150773686822961,0.2586087290930546,-3.061892301083448,28530,0.3278351384944881,serve,serves_watch-right
40,1761597292178006784,35.40900683403015,0.071501113474369,0.2447258979082107,0.2076666951179504,0.1785619556903839,0.7267480492591858,-0.6632895469665527,0.012447565793991,-0.0062127709388732,-0.0418496131896972,0.0145339927328843,-0.1042396061059836,-0.3968492717281044,0.9118298069359216,-0.8135757677914771,0.2629722442318013,-3.059641273901955,28540,0.3288291814852604,serve,serves_watch-right
50,1761597292188052992,35.419052839279175,0.0809446796774864,0.2484950721263885,0.2043196409940719,0.1817530840635299,0.7257179617881775,-0.6635504961013794,0.0161381512880325,-0.0140938162803649,-0.0354546308517456,0.0142552516875822,-0.1058500882079125,-0.3962581296990243,0.9119057328271944,-0.8120773783128495,0.2673525173657152,-3.0573510952730936,28550,0.33173537305378864,serve,serves_watch-right
60,1761597292198098944,35.4290988445282,0.0984392836689949,0.2458755522966385,0.190133512020111,0.184900164604187,0.7246216535568237,-0.6638790369033813,0.0180875062942504,-0.0157288312911987,-0.0286868810653686,0.0141064439399191,-0.107490052156411,-0.3956088644182465,0.911998059927833,-0.8104852068604882,0.2716309949658628,-3.055411553095121,28560,0.3260304160343687,serve,serves_watch-right
70,1761597292208143872,35.439143896102905,0.1117420345544815,0.2352641820907592,0.1778624653816223,0.1879105418920517,0.7234336733818054,-0.6643291711807251,0.0149245411157608,-0.0089867115020751,-0.0147784352302551,0.0140245236673501,-0.1090789604580884,-0.3948888231046715,0.9121226976065202,-0.8087629525048293,0.2756565479175514,-3.0537559533723586,28570,0.31538955951780906,serve,serves_watch-right
80,1761597292218190080,35.44918990135193,0.1279612481594085,0.2322406768798828,0.1641692817211151,0.1907798200845718,0.7221709489822388,-0.6648851633071899,0.0093239098787307,-0.0056182146072387,-0.00381600856781,0.0139811824318594,-0.1106025817798307,-0.3941122696638536,0.9122758769752796,-0.8069356934778201,0.2794292631753352,-3.0523185022332706,28580,0.31186754574493114,serve,serves_watch-right
90,1761597292228235776,35.45923566818237,0.1376485079526901,0.2361792176961898,0.1654406785964965,0.1938176900148391,0.7209945917129517,-0.6652830243110657,-0.0004735738039016,-0.0093857049942016,0.0082854032516479,0.0139172128274414,-0.112215600026567,-0.39340327421703,0.9123857884867828,-0.805236537824329,0.2834848808040315,-3.050700430984675,28590,0.31952832855265784,serve,serves_watch-right
100,1761597292238281728,35.4692816734314,0.1501484215259552,0.2240100651979446,0.1657383292913437,0.1968318521976471,0.719739556312561,-0.6657569408416748,-0.0122157931327819,-0.0173622369766235,0.0221717357635498,0.0136325589182917,-0.1137169881409562,-0.3926703072226061,0.912520017782124,-0.8034270732453072,0.2874623262412022,-3.0486579140570376,28600,0.31653475574257117,serve,serves_watch-right
110,1761597292248327680,35.47932767868042,0.1839561760425567,0.1929552108049392,0.1602716594934463,0.1996667683124542,0.7182829976081848,-0.6664853692054749,-0.0255334824323654,-0.010778784751892,0.0284696221351623,0.0132662744418992,-0.1150743775285546,-0.3918101711446569,0.912724844403443,-0.8013312870257616,0.29107291793418,-3.046649339910621,28610,0.3110604329029358,serve,serves_watch-right
120,1761597292258373632,35.48937368392944,0.1961216032505035,0.1734133660793304,0.1449349522590637,0.2021827846765518,0.7167159914970398,-0.667413055896759,-0.0345650017261505,-0.0062668919563293,0.0240415334701538,0.0130043522057631,-0.1162938135394849,-0.3908570251423996,0.9129826556328317,-0.7990817261579891,0.2941472838760505,-3.045133432825862,28620,0.29923572511123875,serve,serves_watch-right
130,1761597292268419840,35.49941968917847,0.1789777725934982,0.1717209368944168,0.1339084059000015,0.2045291364192962,0.7151800394058228,-0.6683452725410461,-0.0357364416122436,-0.018143355846405,0.0180919766426086,0.0127838456952501,-0.1174380133211575,-0.3899175320468609,0.9132410733815464,-0.7968816480583544,0.2969734477367797,-3.0438137009191593,28630,0.2818733481922436,serve,serves_watch-right
140,1761597292278465792,35.50946569442749,0.1325251460075378,0.1685881614685058,0.1244019865989685,0.2067648917436599,0.7138582468032837,-0.6690700054168701,-0.0454489588737487,-0.0434938669204711,0.0105769634246826,0.0125840745719362,-0.1185396915045162,-0.3891186882830377,0.9134421115731012,-0.7949923063826464,0.2997234737017982,-3.0425254065348533,28640,0.2479127604247513,serve,serves_watch-right
150,1761597292288511744,35.519511699676514,0.0954281166195869,0.1707226932048797,0.0969623699784278,0.2088322192430496,0.7128702402114868,-0.6694812178611755,-0.0513309985399246,-0.053248107433319,0.0080127716064453,0.0124349202327168,-0.1195847939315748,-0.3885342575788042,0.9135567778677396,-0.7935825416523256,0.3023667720506294,-3.041316355071664,28650,0.21829902567011716,serve,serves_watch-right
160,1761597292298557696,35.52955770492554,0.0713986083865165,0.171768307685852,0.065833032131195,0.2106886506080627,0.7121524810791016,-0.6696633696556091,-0.054972693324089,-0.048959732055664,0.0097665786743164,0.012445171564089,-0.1205928035841787,-0.3881052510586243,0.9136064257669454,-0.7925595897136288,0.3048139408869362,-3.0404760621725795,28660,0.19732232748571465,serve,serves_watch-right
170,1761597292308603648,35.53960371017456,0.0635960772633552,0.1621098071336746,0.0391162075102329,0.2122832685708999,0.7116047739982605,-0.6697419881820679,-0.0584136545658111,-0.0483205318450927,0.0181459784507751,0.012574401322036,-0.1215131305834608,-0.387767396560267,0.91362617693525,-0.7917797249880846,0.3069453934302462,-3.039990221518729,28670,0.17847724869626216,serve,serves_watch-right
180,1761597292318649856,35.549649715423584,0.0648445338010788,0.1600506901741027,0.01889961771667,0.2136551141738891,0.7111130952835083,-0.6698281168937683,-0.0628830194473266,-0.0484238862991333,0.0327889323234558,0.0127256513487197,-0.122320890848644,-0.3874577906228003,0.9136477454039568,-0.7910801262590197,0.3087683826018517,-3.0396710226028265,28680,0.17371883184883016,serve,serves_watch-right
190,1761597292328695808,35.55969572067261,0.0693380832672119,0.1418477147817611,-0.0107347071170806,0.2147747576236724,0.7106594443321228,-0.6699514389038086,-0.0716473311185836,-0.0479244589805603,0.0402212142944335,0.0129368214091264,-0.1230148033989611,-0.387158403164586,0.9136785019557424,-0.7904351177175134,0.3102313168630968,-3.039627074963549,28690,0.158252260384704,serve,serves_watch-right
200,1761597292338740736,35.569740772247314,0.0853797048330307,0.1168221980333328,-0.044744960963726,0.215495079755783,0.7102039456367493,-0.6702032089233398,-0.0827131122350692,-0.0410602092742919,0.0462865829467773,0.0133836197577306,-0.123584809753119,-0.3868141404907184,0.9137410169317508,-0.7897878226488767,0.3110964666950477,-3.040353403891205,28700,0.15145702850102413,serve,serves_watch-right
210,1761597292348786944,35.57978677749634,0.0913537070155143,0.1047407686710357,-0.069674551486969,0.2158826291561126,0.7097444534301758,-0.670565128326416,-0.0908063501119613,-0.0435609817504882,0.0430474281311035,0.0139620493147978,-0.124023756585515,-0.3864395656091097,0.9138313768345112,-0.7891353856512592,0.3114629419668908,-3.0415800328942924,28710,0.15546919801744052,serve,serves_watch-right
220,1761597292358832896,35.58983278274536,0.0974762514233589,0.0833007916808128,-0.0980427116155624,0.2156502902507782,0.7092575430870056,-0.6711546778678894,-0.0972878634929657,-0.0505813956260681,0.0464141368865966,0.0146061785751456,-0.1241417949146321,-0.3860200311675819,0.9139824767891548,-0.7884444726383998,0.3108929405316194,-3.043352687026119,28720,0.1614094631275762,serve,serves_watch-right
230,1761597292368878848,35.599878787994385,0.0712350532412529,0.0781856551766395,-0.1293345987796783,0.2151752859354019,0.7088752388954163,-0.6717108488082886,-0.1115223318338394,-0.0570350289344787,0.0460394620895385,0.0153002963029064,-0.1241499066501887,-0.3856570728376201,0.9141232283597196,-0.7879022764042294,0.3100105755224196,-3.0453394310225397,28730,0.16707743093304037,serve,serves_watch-right
240,1761597292378924800,35.60992479324341,0.0711946412920951,0.0637469962239265,-0.1752663999795913,0.214387759566307,0.7086970806121826,-0.6721505522727966,-0.1203173249959945,-0.0636775493621826,0.0464944243431091,0.0162205601734441,-0.1240885099572002,-0.3853917015692529,0.9142276718000186,-0.7876497312769397,0.3087573990516339,-3.0479255233032574,28740,0.19962631950243803,serve,serves_watch-right
250,1761597292388970752,35.61997079849243,0.0831676796078682,0.0439796857535839,-0.1951402425765991,0.2132611870765686,0.7085686922073364,-0.6726441979408264,-0.1321149617433548,-0.0738030672073364,0.0552430152893066,0.0172685571247812,-0.1238935961302743,-0.3851341230231321,0.9143434908178956,-0.7874677495933156,0.3070238019168329,-3.050980186209422,28750,0.21663515403367695,serve,serves_watch-right
260,1761597292399016960,35.630016803741455,0.0851373523473739,0.0151437744498252,-0.2244430035352707,0.2118613570928573,0.7084537148475647,-0.6732073426246643,-0.1423880904912948,-0.0881686806678772,0.0531817078590393,0.0183973419179424,-0.123580413671647,-0.3848690849469787,0.9144753629028138,-0.7873048052735815,0.3048919387893105,-3.0543746471412243,28760,0.24052518476292997,serve,serves_watch-right
270,1761597292409062912,35.64006280899048,0.0892005413770675,-0.0197470970451831,-0.2799821496009826,0.2099084854125976,0.7084186673164368,-0.6738556623458862,-0.1485681682825088,-0.0812366604804992,0.0518463850021362,0.0196729152352546,-0.1230239994159888,-0.3846261228642462,0.914626102273914,-0.7872551720216521,0.3019768817097932,-3.058398997268841,28770,0.29451093106854426,serve,serves_watch-right
280,1761597292419108864,35.6501088142395,0.0899881422519683,-0.0578109622001647,-0.3319024443626404,0.2073367089033126,0.7084870338439941,-0.6745796203613281,-0.1468813866376876,-0.0822205543518066,0.0519905090332031,0.0210721885022533,-0.1221796059124366,-0.3844246796753049,0.914792788301062,-0.7873520437293087,0.2981925107902385,-3.0630331197916254,28780,0.3487107765331679,serve,serves_watch-right
290,1761597292429154816,35.660154819488525,0.0726110115647316,-0.0929569602012634,-0.3981243371963501,0.2040894776582718,0.7087241411209106,-0.6753202676773071,-0.1461365967988968,-0.0967704653739929,0.0553709268569946,0.0226428869109502,-0.1210400160790728,-0.3843034852070704,0.914957585925568,-0.7876881190812768,0.2934843518951988,-3.0683895238788996,28790,0.41523047012273306,serve,serves_watch-right
300,1761597292439200768,35.67020082473755,0.0676152259111404,-0.1255101561546325,-0.4524823725223541,0.2001850605010986,0.7091335654258728,-0.676058828830719,-0.1475574970245361,-0.1131710410118103,0.0568572282791137,0.0244912303427097,-0.119661219401596,-0.3842548190414989,0.9151118565871512,-0.7882686172581446,0.2878804616085491,-3.0746897115446457,28800,0.47441007105291644,serve,serves_watch-right
310,1761597292449246976,35.68024682998657,0.0474793277680873,-0.1363087296485901,-0.5012640357017517,0.1957624405622482,0.7096974849700928,-0.6767618060112,-0.1489026993513107,-0.1367605328559875,0.0597268939018249,0.0265468369081729,-0.1180913766917773,-0.3842831434124139,0.9152465041866956,-0.7890687553132446,0.2815778586919661,-3.0817032600053365,28810,0.5216320444832055,serve,serves_watch-right
320,1761597292459291904,35.69029188156128,0.049188744276762,-0.1543957889080047,-0.5561348795890808,0.1908946484327316,0.710435152053833,-0.6773781180381775,-0.1537852734327316,-0.1445629596710205,0.0642799735069274,0.0287860915366277,-0.1163634569508128,-0.3844092582203444,0.91534719833283,-0.790116368877441,0.2746900399700311,-3.089329895319057,28820,0.5792612506387866,serve,serves_watch-right
330,1761597292469337856,35.7003378868103,0.1078190356492996,-0.2083436995744705,-0.6153910160064697,0.1855098009109497,0.7110275626182556,-0.678252100944519,-0.1708003431558609,-0.1174148917198181,0.065703272819519,0.0312190227130274,-0.1144243663632735,-0.3844229458541139,0.9155061541753456,-0.7909584964666072,0.2669819061536366,-3.0977591463676117,28830,0.6585879927406795,serve,serves_watch-right
340,1761597292479384064,35.710383892059326,0.1877769529819488,-0.2424880713224411,-0.6727393269538879,0.1793815642595291,0.7112135887145996,-0.6797040104866028,-0.1767723262310028,-0.0975661277770996,0.0467999577522277,0.0338101628923833,-0.1121184139513528,-0.3841581117588353,0.9158105741551396,-0.7912230877613954,0.2580281825247993,-3.1071394591882093,28840,0.7393502896700809,serve,serves_watch-right
350,1761597292489430016,35.72042989730835,0.2963034212589264,-0.2611115574836731,-0.7275493144989014,0.172656163573265,0.7107952237129211,-0.6818797588348389,-0.1719542443752288,-0.0988262295722961,0.0353038311004638,0.0366493216063736,-0.109552515959965,-0.3834819148121169,0.9162950796719894,-0.7906281236576543,0.247993954685767,-3.1176215541798724,28850,0.8278302772483714,serve,serves_watch-right
360,1761597292499475968,35.73047590255737,0.3687571585178375,-0.2844009399414062,-0.7846563458442688,0.1654110848903656,0.7097912430763245,-0.684715747833252,-0.1776944249868393,-0.1065502762794494,0.0267262458801269,0.0397232666700289,-0.1067642078401032,-0.3824180114056932,0.9169405760504058,-0.7892017896132304,0.2370348814200688,-3.129086353709027,28860,0.9124425010220566,serve,serves_watch-right
370,1761597292509521664,35.74052166938782,0.431826651096344,-0.3126879632472992,-0.8624973297119141,0.1575154513120651,0.7083575129508972,-0.6880541443824768,-0.1995381563901901,-0.0979449152946472,0.0249224305152893,0.0430966149948342,-0.1037167135999175,-0.3810718715993366,0.917698089007124,-0.787168564815674,0.2250508176426148,3.141518533275288,28870,1.0139771509836946,serve,serves_watch-right
380,1761597292519567616,35.75056767463684,0.4795103967189789,-0.3392299115657806,-0.9277204871177672,0.1488879024982452,0.7065851092338562,-0.6917874217033386,-0.2313463985919952,-0.0891229510307312,0.0265347957611084,0.0467951836079747,-0.1003810039661455,-0.3795127568766002,0.918533566548042,-0.7846606769477561,0.2119883802977908,3.1277796597850873,28880,1.0980311724539278,serve,serves_watch-right
390,1761597292529613824,35.760613679885864,0.5271834135055542,-0.3550741374492645,-0.9848663210868835,0.1397012174129486,0.7044602036476135,-0.6958587169647217,-0.2518532872200012,-0.1020126938819885,0.0154540538787841,0.0507400871763509,-0.0968182745987973,-0.3777523844062054,0.9194317679708504,-0.781662331167816,0.1981270802923795,3.113187826596914,28890,1.1721611087951689,serve,serves_watch-right
400,1761597292539659776,35.77065968513489,0.5286885499954224,-0.3565130233764648,-1.0416367053985596,0.1300756931304931,0.7021186947822571,-0.7000783085823059,-0.2647802829742431,-0.120240032672882,0.0167440176010131,0.0549403862725235,-0.0931064031139222,-0.3758883245423188,0.920337282517651,-0.7783685751282,0.1837067483219499,3.097857459800596,28900,1.2213190184251024,serve,serves_watch-right
410,1761597292549705728,35.78070569038391,0.5170183181762695,-0.3824021518230438,-1.1115500926971436,0.1199501529335975,0.6997740864753723,-0.7042217254638672,-0.2862099409103393,-0.1250212788581848,0.0227489471435546,0.0594039097551357,-0.0892287712393569,-0.374068662932249,0.9211851477160752,-0.7750811786652091,0.1687109661043809,3.081799533290962,28910,1.284166249215319,serve,serves_watch-right
420,1761597292559751680,35.790751695632935,0.526267945766449,-0.4144627749919891,-1.1657754182815552,0.1091065779328346,0.6973878145217896,-0.7083403468132019,-0.2985139489173889,-0.125930905342102,0.0047881007194519,0.0642456353554268,-0.0851106393542806,-0.3722714147248679,0.9219776109575868,-0.7717462015129392,0.1528301837978932,3.0646393528770526,28920,1.3445332530156453,serve,serves_watch-right
430,1761597292569796864,35.80079674720764,0.5326473116874695,-0.4179595112800598,-1.2319471836090088,0.0977828353643417,0.6948615908622742,-0.7124646902084351,-0.2940566539764404,-0.1441718935966491,-0.0156847238540649,0.0693350788237079,-0.0808221789807826,-0.3704529998769278,0.922726993570102,-0.7682274177954672,0.1363937379014258,3.046792232436666,28930,1.40573723537492,serve,serves_watch-right
440,1761597292579842816,35.810842752456665,0.5743721723556519,-0.4646243155002594,-1.3289954662322998,0.0857155099511146,0.6921094059944153,-0.7166850566864014,-0.2837288081645965,-0.1536572575569152,-0.0124714374542236,0.0747441832208475,-0.0762428465532582,-0.3685709035020421,0.9234477847299836,-0.7644074020660208,0.1190345622925879,3.0279598607488034,28940,1.5205288869984164,serve,serves_watch-right
450,1761597292589888768,35.82088875770569,0.6623976230621338,-0.507423460483551,-1.4140571355819702,0.0727003067731857,0.6887229681015015,-0.7213703989982605,-0.2937849164009094,-0.1425346136093139,-0.0126230716705322,0.0804984406051172,-0.0712415510939941,-0.3663869916167149,0.9242322131354116,-0.7597262394473517,0.1004416908671668,3.007965977283711,28950,1.6418912150254514,serve,serves_watch-right
460,1761597292599934720,35.83093476295471,0.6846615672111511,-0.589894711971283,-1.4678678512573242,0.0587818883359432,0.684747040271759,-0.7264063358306885,-0.3040821850299835,-0.1518948674201965,-0.022357702255249,0.0864639935276362,-0.0657912676275429,-0.3639620095199066,0.9250551861769426,-0.7542565425756622,0.0807455571832832,2.9871930783591054,28960,1.7237671715120075,serve,serves_watch-right
470,1761597292609980928,35.840980768203735,0.6274030208587646,-0.6567986607551575,-1.5609123706817627,0.0438495203852653,0.6807096600532532,-0.7312397360801697,-0.3218035995960235,-0.1474608182907104,-0.0441661477088928,0.0925589143937427,-0.0598417355175849,-0.3616615971175067,0.9257713694648086,-0.7487309699499298,0.0598942779879179,2.9658323619611324,28970,1.8059530614885406,serve,serves_watch-right
480,1761597292620026880,35.85102677345276,0.5715826749801636,-0.6761561632156372,-1.649345636367798,0.0279608964920043,0.6768869757652283,-0.7355557084083557,-0.3464423418045044,-0.1391977667808532,-0.024164080619812,0.0989894259882062,-0.0535298449290219,-0.3596619106858834,0.9262715815166987,-0.7435252339443522,0.0379949997073267,2.943478934137096,28980,1.871960186434922,serve,serves_watch-right
490,1761597292630072832,35.86107277870178,0.5098532438278198,-0.7016125321388245,-1.6873621940612793,0.0115593513473868,0.6731979846954346,-0.7393718957901001,-0.3728417158126831,-0.1599534153938293,0.0143200755119323,0.1056099991155042,-0.0470324925669677,-0.3579133894756721,0.9265702542308166,-0.7385250894632114,0.0156327418434301,2.9206634237508813,28990,1.8972089103320429,serve,serves_watch-right
500,1761597292640118784,35.871118783950806,0.4484120011329651,-0.7501075863838196,-1.7329752445220947,-0.0053323595784604,0.6696904301643372,-0.7426212430000305,-0.3907095193862915,-0.1486181020736694,0.019797146320343,0.1123998969790714,-0.0403598399327532,-0.3564554270213897,0.9266482121684833,-0.7337918882519064,-0.0071803332631243,2.897418114272591,29000,1.9408600959463935,serve,serves_watch-right
510,1761597292650164736,35.88116478919983,0.4810477197170257,-0.7894752621650696,-1.7942641973495483,-0.0229676216840744,0.6660210490226746,-0.7455793023109436,-0.4056212604045868,-0.083699882030487,0.0237318277359008,0.119339062646228,-0.033341947110526,-0.3551037305413614,0.9265786184713264,-0.7288617944102537,-0.0307953303796171,2.873663920830954,29010,2.0184306052242604,serve,serves_watch-right
520,1761597292660210944,35.89121079444885,0.5848572254180908,-0.8156546950340271,-1.842060923576355,-0.0410883426666259,0.6614733934402466,-0.7488422393798828,-0.4042699337005615,-0.0451709032058715,0.0378589630126953,0.126471642801335,-0.0260679574701014,-0.3534109968937631,0.9265128395661038,-0.7227816349064838,-0.0548141937361738,2.8495401326875545,29020,2.0977461719239945,serve,serves_watch-right
530,1761597292670256896,35.901256799697876,0.7799622416496277,-0.8988662362098694,-1.8900840282440183,-0.0598998479545116,0.6554121375083923,-0.7528923749923706,-0.4024567306041717,-0.0186781287193298,0.0307396650314331,0.1337152694991105,-0.0183331797921488,-0.3510237796777619,0.9265886340116172,-0.7147281775551299,-0.0793924083729698,2.8252948647530416,29030,2.233544099143857,serve,serves_watch-right
540,1761597292680301824,35.91130185127258,0.9942612051963806,-0.9533624053001404,-1.9329805374145508,-0.0794376358389854,0.6473131775856018,-0.7580733895301819,-0.4098812043666839,0.0271405577659606,-0.0061478018760681,0.1411061933044355,-0.010073482200033,-0.3476518649167949,0.9268903305918008,-0.7040541447252637,-0.1044077990772186,2.8010583177324904,29040,2.373577253434502,serve,serves_watch-right
550,1761597292690348032,35.921347856521606,1.184916377067566,-1.0025161504745483,-1.9967252016067505,-0.0995977818965911,0.6371886730194092,-0.764245331287384,-0.3952905237674713,0.0553314685821533,-0.0402438640594482,0.1486611786405667,-0.0013381513057982,-0.3433300916987532,0.9273740386405596,-0.6908450414895004,-0.1295913832039454,2.777000318841836,29050,2.5290268846607287,serve,serves_watch-right
560,1761597292700393984,35.93139386177063,1.3211758136749268,-1.0573513507843018,-2.041320562362671,-0.120354063808918,0.6252874135971069,-0.7710580825805664,-0.3901897668838501,0.0830713510513305,-0.062300682067871,0.1563047141803119,0.0078753000491585,-0.3382439238319478,0.9279535653644724,-0.6754997758109139,-0.1548400617353333,2.753368620834363,29060,2.6515065619322242,serve,serves_watch-right
570,1761597292710439936,35.94143986701965,1.3615391254425049,-1.0940518379211426,-2.0737130641937256,-0.1415351331233978,0.6120645999908447,-0.7780390381813049,-0.4003654718399048,0.0872762203216552,-0.0874242186546325,0.1639370513598444,0.0174786617470327,-0.332678503539899,0.9285171563750904,-0.6586687042441803,-0.1799449442648246,2.730430078856877,29070,2.711277205815942,serve,serves_watch-right
580,1761597292720485888,35.95148587226868,1.3061639070510864,-1.0809558629989624,-2.126126527786255,-0.16286700963974,0.5983551144599915,-0.7845033407211304,-0.4145713448524475,0.064776599407196,-0.1159483194351196,0.1717604552956083,0.027180779771747,-0.3271231182123356,0.9288433452357224,-0.6414465610731758,-0.2046974809770103,2.7076755004844593,29080,2.7193645842349325,serve,serves_watch-right
590,1761597292730531840,35.9615318775177,1.1317052841186523,-1.0705116987228394,-2.1603152751922607,-0.1841561198234558,0.5849600434303284,-0.7898786067962646,-0.4312766194343567,0.0367898344993591,-0.1352770328521728,0.1797425650796599,0.0368171687803781,-0.322032892033299,0.9287797654023784,-0.6248307920005325,-0.2290531568727192,2.6849942862300566,29090,2.663402755017264,serve,serves_watch-right
600,1761597292740578048,35.971577882766724,1.0067100524902344,-1.0114163160324097,-2.181723117828369,-0.2050671577453613,0.572215735912323,-0.7940508127212524,-0.4467120170593261,0.014393150806427,-0.15902841091156,0.188046808738038,0.0461257756128062,-0.3175641890931597,0.9282585029899174,-0.6092050594691901,-0.2527323416800778,2.662003264685462,29100,2.6069798344038264,serve,serves_watch-right
610,1761597292750624000,35.98162388801575,0.9263898730278016,-0.9988048672676086,-2.1941497325897217,-0.225512757897377,0.5598159432411194,-0.7973394393920898,-0.4458434581756592,0.0077041983604431,-0.1740198135375976,0.196456361694317,0.0551713237979687,-0.3135066487762512,0.9274020964475396,-0.5941636439833055,-0.2756324774874573,2.6392243816217573,29110,2.5826541403659684,serve,serves_watch-right
620,1761597292760669952,35.99166989326477,0.9265626072883606,-1.0150314569473269,-2.2249999046325684,-0.245884820818901,0.5471936464309692,-0.8000748753547668,-0.4492445886135101,0.0506304502487182,-0.2009322047233581,0.2049887751814667,0.064215444742648,-0.3095786504526728,0.9262921339096194,-0.5790077018137342,-0.2981654228965903,2.616592589303342,29120,2.6152307162911184,serve,serves_watch-right
630,1761597292770715904,36.001715898513794,1.0221277475357056,-1.0439610481262207,-2.274141788482666,-0.2663906216621399,0.5336092114448547,-0.8026813268661499,-0.4282352328300476,0.1275388598442077,-0.2058483362197876,0.2136245231927886,0.0734632698269205,-0.3053890847862879,0.9250434525025104,-0.5628624392194986,-0.3204383437601162,2.594307931154301,29130,2.703020657784611,serve,serves_watch-right
640,1761597292780761344,36.01176118850708,1.1212100982666016,-1.0966041088104248,-2.2929484844207764,-0.2871154844760895,0.5185793042182922,-0.8053820133209229,-0.3904663026332855,0.1753904223442077,-0.2024304866790771,0.2222924421508043,0.0830521819032574,-0.3006847647413194,0.923729961169252,-0.5451885405217803,-0.3424501530707038,2.5726756555979327,29140,2.777996653727726,serve,serves_watch-right
650,1761597292790806272,36.02180624008179,1.177586555480957,-1.1333918571472168,-2.312197208404541,-0.3079965710639953,0.5023643374443054,-0.8079407215118408,-0.353899210691452,0.1952064633369445,-0.2073638439178466,0.2308670032417638,0.0929739907415753,-0.2956103455827434,0.922318220817656,-0.5263310650051244,-0.3642055050979972,2.551908848087004,29150,2.8315266426524888,serve,serves_watch-right
660,1761597292800852224,36.03185224533081,1.2340023517608645,-1.1391785144805908,-2.3246710300445557,-0.3288061618804931,0.4851195514202118,-0.8102749586105347,-0.3343865871429443,0.2077210247516632,-0.2141391038894653,0.2393993542553528,0.1030887501467961,-0.2902330568687211,0.9207743534376538,-0.5064998774961154,-0.3854927387313025,2.531924103238091,29160,2.8678537079031705,serve,serves_watch-right
670,1761597292810898176,36.041898250579834,1.247254490852356,-1.091251015663147,-2.3161368370056152,-0.3490513265132904,0.4671021401882171,-0.8123907446861267,-0.3241817057132721,0.1781310141086578,-0.224001407623291,0.2478438775730816,0.1131374277004373,-0.284612957453471,0.9191130756419962,-0.4860105661814332,-0.4058105763372561,2.512893685112284,29170,2.847975138913891,serve,serves_watch-right
680,1761597292820944384,36.05194425582886,1.2985810041427612,-1.054468035697937,-2.3425354957580566,-0.3685604035854339,0.4483218789100647,-0.8143529891967773,-0.3134311735630035,0.1704067587852478,-0.2365198135375976,0.2563973092133106,0.1229812786211422,-0.2787456162892974,0.9172987671184886,-0.464887095912574,-0.4249979276947325,2.4944178836083664,29180,2.8784871046290155,serve,serves_watch-right
690,1761597292830990336,36.06199026107788,1.3474044799804688,-1.001032471656799,-2.388321876525879,-0.3875003457069397,0.4284989535808563,-0.8162304759025574,-0.3152584433555603,0.2163679897785186,-0.2594073414802551,0.2650572754250839,0.1327587282421039,-0.2725066733024349,0.9153468962621686,-0.4428308172717096,-0.4432392586990147,2.476515448448889,29190,2.9191858844333387,serve,serves_watch-right
700,1761597292841036288,36.072036266326904,1.3993362188339231,-0.9294335842132568,-2.440629243850708,-0.4057971239089966,0.4075009226799011,-0.8180903196334839,-0.2922772169113159,0.253250390291214,-0.2831975221633911,0.2741036498684082,0.1423865251825682,-0.2658588482692544,0.9131880936730474,-0.4197158005103855,-0.4604663608028151,2.4586192384406385,29200,2.9628803125916514,serve,serves_watch-right
710,1761597292851082240,36.08208227157593,1.4051454067230225,-0.8364687561988831,-2.471625328063965,-0.423144668340683,0.3856414258480072,-0.81989586353302,-0.2536893784999847,0.2606293261051178,-0.2924087643623352,0.2833244290983348,0.1517482908020287,-0.258890939134742,0.9108650325554162,-0.395902906774592,-0.4764410433391055,2.4411297139581105,29210,2.9636203124656535,serve,serves_watch-right
720,1761597292861128448,36.09212827682495,1.4560155868530271,-0.7573623657226562,-2.514564037322998,-0.4391569793224334,0.3630513846874237,-0.8217875361442566,-0.2226167023181915,0.2712717354297638,-0.3075611591339111,0.2927768903576376,0.1606298772887562,-0.2516033788078021,0.9083916496900912,-0.3715406418297282,-0.4907814578999593,2.423948460109389,29220,3.0027672970062333,serve,serves_watch-right
730,1761597292871173376,36.10217332839966,1.4942032098770142,-0.7473147511482239,-2.510988235473633,-0.4542719423770904,0.3395041227340698,-0.8236345648765564,-0.1965916752815246,0.3019905984401703,-0.3081097602844238,0.3021951800553633,0.1693806791868015,-0.2439116634586992,0.9058119243703884,-0.346389672367575,-0.5040289954791616,2.407545788293425,29230,3.0159881446016152,serve,serves_watch-right
740,1761597292881219328,36.11221933364868,1.478291153907776,-0.7064604163169861,-2.485743522644043,-0.4685898721218109,0.3156035840511322,-0.8251168727874756,-0.1619337499141693,0.3330017328262329,-0.3220693469047546,0.3115449759998372,0.1779804309971732,-0.2361451350723626,0.9030493387167324,-0.3210926955461113,-0.5164875734384929,2.391681230912416,29240,2.9771382090711827,serve,serves_watch-right
750,1761597292891265280,36.122265338897705,1.480663537979126,-0.6248766183853149,-2.4606940746307373,-0.4816530048847198,0.2915129363536834,-0.8264566659927368,-0.1268980205059051,0.3452973961830139,-0.3299154043197632,0.3207423106036408,0.1861974357522265,-0.2282590479309735,0.9001958904017309,-0.2958080742048803,-0.5276710723536892,2.3765833531817107,29250,2.9390220533075877,serve,serves_watch-right
760,1761597292901311488,36.13231134414673,1.4474281072616575,-0.5994607210159302,-2.4298832416534424,-0.4936019480228424,0.2673623859882355,-0.827571451663971,-0.1090286374092102,0.3244192004203796,-0.3142284750938415,0.3298296150742003,0.1940739250387258,-0.220339733927977,0.8972168598229038,-0.2706547332820397,-0.5378024054219052,2.362023839315506,29260,2.8911474970675997,serve,serves_watch-right
770,1761597292911357440,36.14235734939575,1.392189383506775,-0.5708903670310974,-2.4073333740234375,-0.5047328472137451,0.2434085458517074,-0.8282493948936462,-0.1038028597831726,0.3476558923721313,-0.3204780220985412,0.3386962749180938,0.201744131439558,-0.2125432221496191,0.8940970223607788,-0.245878557491643,-0.5473005726193765,2.3480343314280683,29270,2.8389013833532406,serve,serves_watch-right
780,1761597292921403392,36.152403354644775,1.316980242729187,-0.490337073802948,-2.401683568954468,-0.5147708058357239,0.2198125571012497,-0.8286696672439575,-0.0787808299064636,0.3695123791694641,-0.3118027448654175,0.3475717116931722,0.2089816507318516,-0.2049190766387587,0.890802313517312,-0.2216223218839303,-0.5558631227770355,2.334099848031729,29280,2.78261592230594,serve,serves_watch-right
790,1761597292931449344,36.1624493598938,1.2492538690567017,-0.4105431735515594,-2.3966195583343506,-0.523540198802948,0.1966017186641693,-0.8290075063705444,-0.042194664478302,0.3563310205936432,-0.291338562965393,0.3564257026480487,0.2156970170774297,-0.1974108660196507,0.8873919659834651,-0.1978907768238413,-0.5632787792494174,2.3203000077964644,29290,2.733672664035265,serve,serves_watch-right
800,1761597292941495296,36.17249512672424,1.1577680110931396,-0.3389503359794616,-2.375813245773315,-0.5311455726623535,0.1739392578601837,-0.8292343020439148,-0.0230689048767089,0.3612322211265564,-0.2771652340888977,0.3653820631515803,0.2218826628248093,-0.1901339812255829,0.8838060948386773,-0.1748284981850227,-0.5696857948109251,2.3062415073055815,29300,2.6645454915544393,serve,serves_watch-right
810,1761597292951541248,36.18254113197327,1.0868803262710571,-0.2584227621555328,-2.3599183559417725,-0.5374892950057983,0.1518905907869339,-0.8294784426689148,-0.0207992792129516,0.3834334909915924,-0.2809340953826904,0.3743024207981137,0.2275019471094869,-0.1830399710432487,0.8801346600238966,-0.1524807725736685,-0.5749571432064308,2.2922158614353045,29310,2.6109970919834615,serve,serves_watch-right
820,1761597292961587200,36.19258713722229,1.0596321821212769,-0.2002615481615066,-2.3090696334838867,-0.542712390422821,0.1302506625652313,-0.829757809638977,-0.0174530148506164,0.3857710361480713,-0.2681120634078979,0.3832796144306197,0.2326424466483937,-0.1760641335744335,0.8763422599220593,-0.1306217961749938,-0.5792249000569446,2.2780273834491136,29320,2.548475548506705,serve,serves_watch-right
830,1761597292971632128,36.202632188797,1.0181095600128174,-0.1433412730693817,-2.238554000854492,-0.5468853712081909,0.1091521829366684,-0.8300615549087524,-0.0085803270339965,0.3786560297012329,-0.259339690208435,0.3919333786046171,0.2373844101325308,-0.1691681228139635,0.8725932730850113,-0.1093700980274805,-0.5825709174915665,2.2644631251833416,29330,2.4633752883992925,serve,serves_watch-right
840,1761597292981678336,36.21267819404602,0.972170114517212,-0.0815839320421218,-2.16650652885437,-0.5500401258468628,0.0886834561824798,-0.830416202545166,-0.0050745606422424,0.3831640779972076,-0.2736486792564392,0.4002332935035366,0.2417191404115262,-0.1623691777567363,0.8689196979145174,-0.0888001174044318,-0.5850198754115993,2.2515501349531633,29340,2.376030557273301,serve,serves_watch-right
850,1761597292991724288,36.22272419929504,0.8893620371818542,-0.0209264438599348,-2.1078367233276367,-0.5521688461303711,0.0690937340259552,-0.8308643698692322,-0.0125893950462341,0.3802928626537323,-0.261695384979248,0.4081917615725481,0.2455724033719306,-0.1557626515859825,0.865339006259833,-0.0691488257908619,-0.5865507277378043,2.2391769844365177,29350,2.2878763955776695,serve,serves_watch-right
860,1761597293001770240,36.23277020454407,0.852734386920929,0.0326916091144084,-2.083845615386963,-0.5533393025398254,0.0502403043210506,-0.8314394354820251,-0.0142876505851745,0.365592211484909,-0.2187619805335998,0.416145427974138,0.2489354939000304,-0.1493700126427825,0.8617092343823167,-0.0502614623747492,-0.5872081274493727,2.226596142910228,29360,2.251807546108542,serve,serves_watch-right
870,1761597293011816192,36.24281620979309,0.8381786346435547,0.0543593540787696,-2.077327013015747,-0.5538362264633179,0.0316169895231723,-0.8320251107215881,0.0022767782211303,0.3511497378349304,-0.1737732291221618,0.4239815889807861,0.252078931709477,-0.1429813279043718,0.8580513495031413,-0.0316222606359614,-0.5872973657891645,2.214162151878966,29370,2.240711021518331,serve,serves_watch-right
880,1761597293021862144,36.252862215042114,0.8058061599731445,0.1128970980644226,-2.0790140628814697,-0.5536381006240845,0.0131890783086419,-0.8326529264450073,0.0238682031631469,0.3409979343414306,-0.1522713899612426,0.4318753863758774,0.2549697312647414,-0.1366161194291074,0.8542893087862417,-0.0131894604712769,-0.5867844979634567,2.201472229011311,29380,2.2325699979756397,serve,serves_watch-right
890,1761597293031908352,36.26290822029114,0.7883790135383606,0.1812905371189117,-2.0960774421691895,-0.5525057911872864,-0.0050531569868326,-0.8334937691688538,0.0348209142684936,0.317156434059143,-0.1361717581748962,0.4397387728123424,0.2575066484190691,-0.1301670158969388,0.850515611567415,0.0050531783757913,-0.5853760489681162,2.1887644315083,29390,2.2467639776814816,serve,serves_watch-right
900,1761597293041954304,36.27295422554016,0.8194217681884766,0.243335336446762,-2.107751846313477,-0.5504216551780701,-0.0234109908342361,-0.8345585465431213,0.0209569334983825,0.2941476702690124,-0.1112880110740661,0.4476918236931114,0.2597392157275873,-0.1235162911197343,0.8466707231683317,0.0234131303187801,-0.5830499378226096,2.17582714326634,29400,2.274484989131091,serve,serves_watch-right
910,1761597293051999232,36.28299927711487,1.1518052816390991,-0.1853944510221481,-2.1010138988494873,-0.5485172271728516,-0.0427509024739265,-0.8350456357002258,-0.0027675628662109,0.2848163247108459,-0.1087409853935241,0.4553393954454261,0.2625092525382391,-0.1164734772955638,0.8427270704662229,0.0427639370131633,-0.5811902654349654,2.1636268514620993,29410,2.4031824550874723,serve,serves_watch-right
920,1761597293062045440,36.29304528236389,1.051654577255249,0.2164785861968994,-2.1517717838287354,-0.5469920039176941,-0.0647825375199318,-0.8346274495124817,-0.0262349247932434,0.2945035994052887,-0.1339547038078308,0.4630792671735217,0.2663120599987911,-0.1084626818262183,0.8383742966592559,0.064827936757997,-0.5801428565420231,2.151652285696968,29420,2.404779020580732,serve,serves_watch-right
930,1761597293072091392,36.303091287612915,1.04501211643219,0.3240146338939667,-2.4186060428619385,-0.5429612398147583,-0.0856352001428604,-0.835379958152771,-0.0453565716743469,0.2742185592651367,-0.082863450050354,0.4713426513925938,0.2687091914585702,-0.1005255385805458,0.8339821161782413,0.0857402156635186,-0.5763451656408839,2.1381897907990375,29430,2.6545604150284112,serve,serves_watch-right
940,1761597293082137344,36.31313729286194,0.7756065130233765,0.5585868954658508,-2.407123327255249,-0.5370444655418396,-0.1067196130752563,-0.836776077747345,0.0142020583152771,0.2697292566299438,-0.2088324427604675,0.4803996435623125,0.2703625883935009,-0.0922823471638296,0.829219111262075,0.1069232286348871,-0.5705904402824181,2.12280095955557,29440,2.5899473924091274,serve,serves_watch-right
950,1761597293092183296,36.32318329811096,0.6580295562744141,0.6848215460777283,-2.422624349594116,-0.528899073600769,-0.1254435777664184,-0.8393626809120178,-0.0914012193679809,0.0378275960683822,-0.1527637839317321,0.4895016215301129,0.2705113376393393,-0.0845120035167809,0.8246633401444278,0.125774924976979,-0.5622725442138388,2.1065911959428485,29450,2.602132238405517,serve,serves_watch-right
960,1761597293102229248,36.333229303359985,0.627311646938324,0.7630433440208435,-2.4677670001983643,-0.5195388197898865,-0.1437211036682129,-0.8422728776931763,-0.1791000366210937,0.1393113285303115,-0.1393554806709289,0.4990273263179093,0.2701283625427175,-0.0767738369315036,0.8198220162709593,0.1442205398414431,-0.5527023787797546,2.0889730363806676,29460,2.658125093840961,serve,serves_watch-right
970,1761597293112275456,36.34327530860901,0.6971445083618164,0.8192538619041443,-2.5701744556427,-0.5089523196220398,-0.1622548848390579,-0.8453643321990967,-0.1948288083076477,0.2213369011878967,-0.1605713367462158,0.5087512973103638,0.2694469371074337,-0.0686744291900058,0.814772533712175,0.1629753869850615,-0.5419261283974245,2.0706107123058817,29470,2.7862132165758857,serve,serves_watch-right
980,1761597293122321408,36.35332131385803,0.7574988603591919,0.9236821532249452,-2.6400139331817627,-0.4970484972000122,-0.1816333383321762,-0.8484999537467957,-0.1010655164718627,0.2317889779806137,-0.1654923558235168,0.5186967518578767,0.2686214707918319,-0.0599377595282376,0.8094465934443087,0.1826471634951584,-0.5299104706221786,2.0515122936509687,29480,2.897700262453932,serve,serves_watch-right
990,1761597293132366080,36.36336612701416,0.8484820127487183,0.9940295219421388,-2.6839301586151123,-0.4837130904197693,-0.2015683650970459,-0.8516993522644043,-0.0832577347755432,0.2146756798028946,-0.1708836555480957,0.5286761257610231,0.2675651742335797,-0.0505885280417312,0.8039596374358957,0.2029588940800555,-0.516511394941854,2.0319915654433767,29490,2.98521314360874,serve,serves_watch-right
1000,1761597293142412288,36.373412132263184,0.980054259300232,1.0524719953536987,-2.720393180847168,-0.4692188203334808,-0.2223334014415741,-0.8546353578567505,-0.1339305937290191,0.2524847686290741,-0.1624850034713745,0.5384265229851322,0.2665355691968453,-0.0405108075811975,0.7983824449891597,0.2242071271863462,-0.5020967369952044,2.0126483739722607,29500,3.0771322218221457,serve,serves_watch-right
1010,1761597293152458240,36.38345813751221,1.1258649826049805,1.108209252357483,-2.78467059135437,-0.4534493386745453,-0.2441594153642654,-0.8571872115135193,-0.1730155050754547,0.2975804209709167,-0.1517239212989807,0.5478970087383321,0.2655800238296714,-0.0295575227378785,0.7927184641934173,0.2466527767829661,-0.4865750952183638,1.9935660496755867,29510,3.2015761756392336,serve,serves_watch-right
1020,1761597293162504192,36.39350414276123,1.1755989789962769,1.189039945602417,-2.817401170730591,-0.4364143311977386,-0.2666583061218261,-0.8593229055404663,-0.1674064397811889,0.2968401908874511,-0.1284090280532837,0.5575057752494138,0.2646002744482481,-0.0180342964362094,0.7866694299223556,0.2699241178174875,-0.4699145297062527,1.9735084944931216,29520,3.2762170728584805,serve,serves_watch-right
1030,1761597293172550144,36.403550148010254,1.1897478103637695,1.2793983221054075,-2.8763394355773926,-0.4177745282649994,-0.2890675365924835,-0.86133873462677,-0.1621052324771881,0.2747548222541809,-0.1245468854904174,0.5669338460482916,0.26323812976499,-0.0060276032158381,0.7805480770102116,0.2932526537262968,-0.4515995043445846,1.9530626264186768,29530,3.365366022816714,serve,serves_watch-right
1040,1761597293182596096,36.41359615325928,1.2265870571136477,1.3492028713226318,-2.944181442260742,-0.3975975513458252,-0.311471164226532,-0.8630769848823547,-0.1787879467010498,0.2977688014507293,-0.1379453539848327,0.5766175493061414,0.2615746886029371,0.0063399673693245,0.7739835874858239,0.3167408272420902,-0.4316953051017038,1.9310136949373016,29540,3.463101003669471,serve,serves_watch-right
1050,1761597293192642304,36.4236421585083,1.1985617876052856,1.404470443725586,-2.96093225479126,-0.3760471045970917,-0.3334863781929016,-0.8645087480545044,-0.1964168548583984,0.3201044499874115,-0.1102684140205383,0.586138277627537,0.2595842525882731,0.0190167898216415,0.7672654044466919,0.3399992481071237,-0.4102963319985188,1.908281449363264,29550,3.48944227685021,serve,serves_watch-right
1060,1761597293202688256,36.43368816375733,1.1564615964889526,1.4745497703552246,-2.9637184143066406,-0.3533547222614288,-0.3545892834663391,-0.8656828999519348,-0.1791617572307586,0.294515460729599,-0.0913788676261901,0.5957832473342171,0.2572108795724169,0.0316405399218115,0.7601866103497016,0.3624747851909701,-0.3875384361882565,1.8839937454632756,29560,3.506469348034956,serve,serves_watch-right
1070,1761597293212734208,36.44373416900635,1.1145941019058228,1.5590015649795532,-2.9997825622558594,-0.3292111456394195,-0.3746193945407867,-0.8667643070220947,-0.1654787957668304,0.2690285742282867,-0.1023061275482177,0.6053640706672557,0.2542671720419742,0.0443402525130194,0.7529385904058203,0.3839862424946841,-0.3629864122113513,1.8585547893552825,29570,3.559705228305607,serve,serves_watch-right
1080,1761597293222779392,36.453779220581055,1.1637097597122192,1.5223733186721802,-3.032919645309448,-0.3040738105773926,-0.3941666185855865,-0.8672783970832825,-0.1789126098155975,0.2928025126457214,-0.0789496302604675,0.6148763951769851,0.2511726100465656,0.0572113172352596,0.7453630989874018,0.4051608876425208,-0.3372154182118368,1.8319681881328216,29580,3.5875398954100013,serve,serves_watch-right
1090,1761597293232825344,36.46382522583008,1.0628076791763306,1.533696532249451,-3.0065596103668213,-0.2786330580711365,-0.4127876758575439,-0.8671619892120361,-0.1893234848976135,0.3241951763629913,-0.0457866191864013,0.6242249686668575,0.2480597009100782,0.0698955038964862,0.7375121409797636,0.4255125533350413,-0.3108962654243777,1.8044822464092352,29590,3.5385287771387786,serve,serves_watch-right
1100,1761597293242871296,36.4738712310791,0.8771336674690247,1.6008647680282593,-3.0298125743865967,-0.2522132396697998,-0.429257869720459,-0.8672520518302917,-0.1621239185333252,0.3043952286243438,-0.0401575565338134,0.6335349011427176,0.2441849477464765,0.082144239648759,0.7295611702573266,0.4436709310711487,-0.2830125592019387,1.7756984015617556,29600,3.537215813607218,serve,serves_watch-right
1110,1761597293252917248,36.483917236328125,0.821234405040741,1.5675156116485596,-3.0439507961273193,-0.2250371426343917,-0.4438891410827636,-0.867364227771759,-0.1747126132249832,0.3229479789733886,0.007989227771759,0.6428983377371146,0.2397544785996471,0.0939982566118996,0.7213625266465077,0.4599342061860204,-0.2538522711166618,1.7454303823355437,29610,3.520961174172291,serve,serves_watch-right
1120,1761597293262963200,36.49396324157715,0.7380309700965881,1.6031979322433472,-2.973839282989502,-0.1976611316204071,-0.4571395814418793,-0.8671525120735168,-0.1892559826374054,0.3131118714809418,0.0208542943000793,0.6520045333044835,0.2351189456726478,0.1055595542292221,0.7130683215127455,0.4747763947167595,-0.2241136196592514,1.7146417838756278,29620,3.45812859850853,serve,serves_watch-right
1130,1761597293273009408,36.50400924682617,0.6277102828025818,1.6333272457122805,-2.962871789932251,-0.1697333753108978,-0.4685313105583191,-0.866988480091095,-0.1675468981266021,0.2719523310661316,0.0222771763801574,0.6608597785861734,0.2299229222697991,0.11679562548298,0.7048110703820454,0.487627603822964,-0.1933283492366823,1.6833739254732427,29630,3.4409863897287507,serve,serves_watch-right
1140,1761597293283055360,36.514055252075195,0.6335498094558716,1.645134687423706,-2.9477221965789795,-0.1414196938276291,-0.478564441204071,-0.8665890693664551,-0.1829058676958084,0.3321258425712585,0.0294156074523925,0.6695296820835702,0.2244216432060854,0.1278295955635232,0.6964370960816622,0.4990190546130498,-0.161765239889697,1.6514934136345252,29640,3.4346644157807718,serve,serves_watch-right
1150,1761597293293100288,36.5241003036499,0.6571552753448486,1.6348668336868286,-2.920048713684082,-0.1129044294357299,-0.4879594147205353,-0.8655334711074829,-0.1638747155666351,0.3574967682361603,0.0266205072402954,0.6777183213240234,0.2189117122773432,0.1389637167217195,0.6880877689156074,0.5097504335386678,-0.1297124847086134,1.619820283571613,29650,3.4104731504720607,serve,serves_watch-right
1160,1761597293303146240,36.534146308898926,0.5624833106994629,1.6734098196029663,-2.88641095161438,-0.0842035338282585,-0.4961684346199035,-0.8641334772109985,-0.1298162341117859,0.3231795728206634,0.0298744440078735,0.6858281149690759,0.2132367136082397,0.1498778422687385,0.679489963095322,0.5191800996873813,-0.0971360805868224,1.5873284966108383,29660,3.383497610573782,serve,serves_watch-right
1170,1761597293313192448,36.54419231414795,0.4786200523376465,1.7262696027755735,-2.8749239444732666,-0.0550162829458713,-0.5026464462280273,-0.8627396821975708,-0.1237556934356689,0.3221044540405273,0.0200272798538208,0.693721158898417,0.2070109415298247,0.1605510377172309,0.6709103989907086,0.5266573520683536,-0.0636830452263616,1.5545416577248985,29670,3.3873694192503354,serve,serves_watch-right
1180,1761597293323238400,36.55423831939697,0.4266428649425506,1.7621320486068726,-2.842017650604248,-0.0253725107759237,-0.5077424049377441,-0.8611352443695068,-0.110506996512413,0.3229737281799316,0.0316369533538818,0.7013899791632451,0.2003772602699832,0.1711178698717207,0.6622838083074685,0.532562235036587,-0.0294555043750714,1.5214928089878057,29680,3.3710825883208395,serve,serves_watch-right
1190,1761597293333284352,36.564284324646,0.3570259511470794,1.824544906616211,-2.7785587310791016,0.0045217284932732,-0.5114085078239441,-0.8593258857727051,-0.0962423011660575,0.2875162959098816,0.0399136543273925,0.7086917841095544,0.1933360755841058,0.1815440230619928,0.6537729337695917,0.5368230613511159,0.0052619000582163,1.4887759407773915,29690,3.343175177598018,serve,serves_watch-right
1200,1761597293343330304,36.57433032989502,0.3269446492195129,1.8428384065628052,-2.7436158657073975,0.0345290601253509,-0.513785183429718,-0.8572237491607666,-0.0910628736019134,0.302664577960968,0.0532839298248291,0.7156530142838676,0.1859814980875095,0.1918307133835139,0.6453313836699947,0.5395910617791009,0.040258341655464,1.4564143958331497,29700,3.321200718854186,serve,serves_watch-right
1210,1761597293353376512,36.58437633514404,0.2909797430038452,1.86517333984375,-2.701984405517578,0.0644839331507682,-0.5150808095932007,-0.8547125458717346,-0.1053622514009475,0.3444418311119079,0.0630866289138794,0.7223137309165634,0.1784542279216382,0.2019846849092328,0.636882332889502,0.5411019518835809,0.0753025117212334,1.424358336517472,29710,3.2960977725429585,serve,serves_watch-right
1220,1761597293363422464,36.594422340393066,0.1579140722751617,1.9497827291488647,-2.6487388610839844,0.09464031457901,-0.5149242281913757,-0.8519954681396484,-0.1018271893262863,0.3362438082695007,0.0744380950927734,0.7286446386576174,0.170470523356389,0.2119954489141123,0.6285496719714362,0.5409192296026931,0.1106272495914936,1.3928594293099474,29720,3.292781058516676,serve,serves_watch-right
1230,1761597293373467136,36.604467153549194,0.1132533773779869,1.977272152900696,-2.5503716468811035,0.1248589679598808,-0.5131200551986694,-0.8491867184638977,-0.1173058897256851,0.3407263159751892,0.1173904538154602,0.7345526894084028,0.1619296695323401,0.2217778952424044,0.6205043679132015,0.5388159411285307,0.1459875536776022,1.3624856997526285,29730,3.229059775126361,serve,serves_watch-right
1240,1761597293383513088,36.61451315879822,0.1138765290379524,1.9912205934524536,-2.4760477542877197,0.1546060144901275,-0.5105771422386169,-0.8458179235458374,-0.123279720544815,0.3567227721214294,0.1343921422958374,0.7399778458807005,0.1533716950847777,0.2314479859428072,0.6126513384742537,0.5358558922462408,0.1807928694668539,1.3333259646743163,29740,3.179424444324497,serve,serves_watch-right
1250,1761597293393559296,36.62455916404724,0.0891645178198814,1.9976352453231812,-2.394118309020996,0.1839670985937118,-0.5072858929634094,-0.8419128060340881,-0.0934977084398269,0.3533094525337219,0.1320434212684631,0.7449780209890597,0.1447549381160209,0.2410178582377343,0.6049497291739893,0.5320324067171084,0.2151294723113926,1.3052479403441866,29750,3.119342777282582,serve,serves_watch-right
1260,1761597293403605248,36.634605169296265,0.0571770593523979,2.0189034938812256,-2.314587116241455,0.2128186523914337,-0.5032095909118652,-0.8375489711761475,-0.0899396240711212,0.37680584192276,0.1280305981636047,0.7495639475281888,0.1360739436335646,0.2504184297076953,0.5974347541048742,0.5273088737121223,0.2488308891391719,1.278378435092149,29760,3.0718974677539195,serve,serves_watch-right
1270,1761597293413651200,36.64465117454529,-0.0054522301070392,2.062378406524658,-2.2069265842437744,0.2413267940282821,-0.4982743561267853,-0.8327568769454956,-0.0754485130310058,0.3506608307361603,0.1091088056564331,0.7536749580597162,0.1271867869433556,0.2597018991142092,0.590213967562749,0.5216073322515337,0.2820661175986146,1.2529745461449504,29770,3.020589241647103,serve,serves_watch-right
1280,1761597293423697152,36.65469717979431,-0.0386991314589977,2.0637311935424805,-2.088068723678589,0.2691866755485534,-0.4925753176212311,-0.8275917768478394,-0.087027221918106,0.3347231447696686,0.1073769330978393,0.7572729178699479,0.1181748683411946,0.268772781634288,0.5833813499121816,0.5150464930584788,0.3144715932416687,1.2293601645036265,29780,2.9360713643882503,serve,serves_watch-right
1290,1761597293433743360,36.664743185043335,-0.0988399684429168,2.054640293121338,-2.002610683441162,0.2962755262851715,-0.4862686097621918,-0.8220484852790833,-0.0821641981601715,0.3354965150356293,0.1138117909431457,0.7604360807654762,0.1091454153631249,0.2776023094121712,0.5768546632208639,0.5078143830204543,0.345919624848542,1.2073318373509605,29790,2.8708475443520527,serve,serves_watch-right
1300,1761597293443788288,36.67478823661804,-0.1266500949859619,2.073749303817749,-1.9113506078720093,0.3227501213550567,-0.4792061746120453,-0.8162069916725159,-0.0523796677589416,0.3207131028175354,0.1288137435913086,0.7632185591562897,0.099973808609032,0.286184827296859,0.5706145061418713,0.4997500365984245,0.3765577825546048,1.186804783890102,29800,2.82307236319887,serve,serves_watch-right
1310,1761597293453834240,36.684834241867065,-0.1664654165506363,2.1038293838500977,-1.818704605102539,0.3487053215503692,-0.4716937243938446,-0.8098824620246887,-0.0421867668628692,0.3087756335735321,0.1443246006965637,0.7655496393832614,0.090721087830264,0.2946666708858088,0.5646901502144431,0.4912106342855811,0.4065729921585786,1.16782092603048,29810,2.7859460245811727,serve,serves_watch-right
1320,1761597293463880192,36.69488024711609,-0.1688895225524902,2.098903179168701,-1.7498952150344849,0.3740714490413666,-0.4638414680957794,-0.8030701279640198,-0.0357382893562316,0.2923021614551544,0.132827877998352,0.7675083213652278,0.0814728296536005,0.3030298679657492,0.5589866540550646,0.4823264274646838,0.4359166401332344,1.1501165885613247,29820,2.7378917966115965,serve,serves_watch-right
1330,1761597293473926400,36.70492625236511,-0.1995875239372253,2.124403953552246,-1.6519265174865725,0.3988300263881683,-0.4557560384273529,-0.7957518696784973,-0.0509754121303558,0.3019016683101654,0.1182616353034973,0.7690838451875728,0.0722559163971553,0.3112927182195984,0.5535213430590336,0.4732214161613622,0.46460633386811,1.1337053366812098,29830,2.698478933909828,serve,serves_watch-right
1340,1761597293483972352,36.714972257614136,-0.2464259266853332,2.16019606590271,-1.5521310567855835,0.423126220703125,-0.4473571479320526,-0.7879313826560974,-0.0567474365234375,0.2583007514476776,0.1011943221092224,0.7702421651555508,0.062949905258765,0.3194865046108605,0.5483546182005754,0.4638081066020006,0.492814612967318,1.118715062085713,29840,2.6713823384013384,serve,serves_watch-right
1350,1761597293494018304,36.72501826286316,-0.2738871276378631,2.1660118103027344,-1.4437283277511597,0.4468213021755218,-0.4387132823467254,-0.7796674370765686,-0.0709058344364166,0.2173388004302978,0.1037184000015258,0.7708171480425208,0.0534955706473243,0.3275736425326057,0.543759670556614,0.454166297043984,0.5203992883018468,1.105843098409815,29850,2.6174363039829274,serve,serves_watch-right
1360,1761597293504064256,36.73506426811218,-0.26689213514328,2.1177613735198975,-1.3397151231765747,0.4695152342319488,-0.4301915764808655,-0.7710321545600891,-0.0785698592662811,0.2094884514808654,0.1250361204147339,0.7711104016481202,0.0443184575676157,0.3354396971615128,0.5393558345602124,0.4447049683373595,0.5469698678682859,1.0940445021309984,29860,2.5201153263773954,serve,serves_watch-right
1370,1761597293514110208,36.745110273361206,-0.2789477407932281,2.1142141819000244,-1.267124056816101,0.4913184344768524,-0.421789675951004,-0.7620365023612976,-0.0615088641643524,0.2098298668861389,0.1411716938018798,0.7710865477692856,0.0353457827526026,0.3431215790872308,0.5352044191941414,0.4354182755952538,0.5726714003955543,1.0834191130499304,29870,2.480587999729687,serve,serves_watch-right
1380,1761597293524155392,36.75515532493591,-0.2623732388019562,2.087230920791626,-1.184231162071228,0.512431800365448,-0.4134776592254638,-0.7526286840438843,-0.0411792993545532,0.1994578838348388,0.1573680639266967,0.7707600987158184,0.0265056672821335,0.3506894606745984,0.531265803698148,0.42627020834613,0.5977617723035245,1.073816973791327,29880,2.414078722487868,serve,serves_watch-right
1390,1761597293534201344,36.76520133018494,-0.232738122344017,2.023869276046753,-1.1162166595458984,0.532547652721405,-0.4055758714675903,-0.7429004907608032,-0.0404059886932373,0.1813937723636627,0.1600300669670105,0.7701942066930989,0.0180480308068983,0.3580838095837471,0.5274950828907983,0.4176087606843559,0.6219448912168497,1.0650252054879554,29890,2.3229622276666553,serve,serves_watch-right
1400,1761597293544247296,36.77524733543396,-0.2355770170688629,2.0266482830047607,-1.0736751556396484,0.551891565322876,-0.3978658318519592,-0.7328836917877197,-0.0194056034088134,0.1529775261878967,0.1404459476470947,0.7694724538827532,0.0098520693737679,0.3653232586588311,0.523788206636175,0.4091894457959644,0.6454445911275608,1.0567670439129728,29900,2.3055537586044337,serve,serves_watch-right
1410,1761597293554293504,36.78529334068298,-0.2537592053413391,2.0048668384552,-1.044485330581665,0.5707147121429443,-0.3900745511054992,-0.7225832343101501,-0.0133416652679443,0.1323078572750091,0.1242861747741699,0.7684475059223768,0.0016090749679787,0.3724322711533447,0.5203651944159734,0.4007125676564492,0.6685061375059871,1.0496495435653364,29910,2.2748262307334834,serve,serves_watch-right
1420,1761597293564339456,36.79533934593201,-0.2546210885047912,2.016608715057373,-1.0313438177108765,0.5891742706298828,-0.3821136653423309,-0.7119429707527161,-0.0236377716064453,0.1097137629985809,0.0907272100448608,0.7674621184170973,-0.0065220707636008,0.3794548230211946,0.5166946402923244,0.39208244550484,0.6913202856244002,1.042304285503523,29920,2.2793009188536644,serve,serves_watch-right
1430,1761597293574385408,36.80538535118103,-0.2834678888320923,1.9899853467941284,-0.9877087473869324,0.6071491241455078,-0.3740951716899872,-0.7010155320167542,-0.030199110507965,0.088557481765747,0.0857658982276916,0.766294596614028,-0.0146254340053984,0.3863655540633953,0.5131279927364631,0.3834209200815265,0.7137666599999737,1.035608450570811,29930,2.239634857319142,serve,serves_watch-right
1440,1761597293584431360,36.815431356430054,-0.2741115689277649,1.965098261833191,-0.950797438621521,0.6244928240776062,-0.3660461008548736,-0.6899412870407104,-0.0416681170463562,0.091906726360321,0.0799254775047302,0.7649962485740789,-0.022636261250407,0.3930864360894087,0.5096581404168482,0.3747566661089298,0.7356471024724998,1.0295190799595546,29940,2.200173652275909,serve,serves_watch-right
1450,1761597293594476288,36.82547616958618,-0.2233602255582809,1.9110499620437624,-0.9090689420700072,0.6411042809486389,-0.3583434522151947,-0.6786569952964783,-0.0380159616470336,0.1187347173690795,0.0737375617027282,0.7635157675688982,-0.0303878394165584,0.3996849867990567,0.5063320563553652,0.3664929041777579,0.7569516558888401,1.0240179215299112,29950,2.128005660054783,serve,serves_watch-right
1460,1761597293604522240,36.835522174835205,-0.1762406527996063,1.8685739040374756,-0.85487961769104,0.6569108963012695,-0.3511486351490021,-0.6672051548957825,-0.034886360168457,0.119367629289627,0.0829309225082397,0.761999136077032,-0.0376793315072016,0.4061744570172143,0.5029512222077428,0.3587975855897259,0.7776238848000941,1.0184917443779329,29960,2.062388994174635,serve,serves_watch-right
1470,1761597293614568192,36.84556818008423,-0.1171123459935188,1.8264727592468264,-0.7931891083717346,0.6719609498977661,-0.3445709347724914,-0.6555451154708862,-0.0300236940383911,0.1138733327388763,0.0863617658615112,0.7602673117682017,-0.0446120965956973,0.4125980979825628,0.4997662089213198,0.3517816939235989,0.7977634197973562,1.0135217069755378,29970,1.9947097541984318,serve,serves_watch-right
1480,1761597293624614144,36.85561418533325,-0.0928283482789993,1.7951321601867676,-0.7588319778442383,0.686321496963501,-0.3385221064090729,-0.6437123417854309,-0.0371668934822082,0.1163236200809478,0.0778248906135559,0.75860870226723,-0.0510148355669368,0.4189765266031062,0.4963556023216739,0.3453458160659572,0.8174233616844948,1.0079927937287394,29980,1.9511387816811023,serve,serves_watch-right
1490,1761597293634660352,36.865660190582275,-0.0793780535459518,1.8224183320999143,-0.7485601305961609,0.7003160119056702,-0.3325948119163513,-0.6316155791282654,-0.0301194190979003,0.1193990409374237,0.0607995986938476,0.7568380731539636,-0.0573072620331707,0.4253328987303054,0.4929544157673058,0.3390537121228971,0.8369320147502749,1.0026681804719657,29990,1.9717636069460047,serve,serves_watch-right
1500,1761597293644706304,36.8757061958313,-0.0730026811361312,1.820892095565796,-0.7253576517105103,0.7139998078346252,-0.3266704380512237,-0.6192662715911865,-0.0228224396705627,0.1086834073066711,0.0604588985443115,0.7549827319263622,-0.0635410411110429,0.4316588827003739,0.4895245306781939,0.3327785988957534,0.8563326666224569,0.9974880961491954,30000,1.9614079478889763,serve,serves_watch-right
1510,1761597293654752256,36.88575220108032,-0.0317617654800415,1.83157479763031,-0.6913898587226868,0.7273170948028564,-0.3209814429283142,-0.6066141724586487,-0.0302956104278564,0.0842565894126892,0.0448008179664611,0.752933057755245,-0.0696809295104535,0.4379925497005489,0.4862087247360782,0.3267655873377105,0.8756390038763262,0.9927317689114308,30010,1.957982376275511,serve,serves_watch-right
1520,1761597293664798208,36.895798206329346,0.0254680700600147,1.8318109512329104,-0.6647916436195374,0.7402768135070801,-0.3156741857528686,-0.5935823321342468,-0.0223050713539123,0.0707553923130035,0.0368044376373291,0.750837184304943,-0.0755146640150849,0.4444168730659152,0.4827366582342539,0.3211670980459578,0.8949354337747611,0.987613516927446,30020,1.9488786296421252,serve,serves_watch-right
1530,1761597293674843392,36.90584325790405,0.0829124525189399,1.8302109241485596,-0.6427015066146851,0.7529011368751526,-0.3108516037464142,-0.5800957679748535,-0.0271016359329223,0.0897974967956543,0.027925968170166,0.7485890758569528,-0.0810794748305449,0.4509747724222682,0.4792308057873055,0.3160888782860373,0.9143159446683587,0.982403651750912,30030,1.9415487962604019,serve,serves_watch-right
1540,1761597293684889344,36.91588926315307,0.09976427257061,1.8501263856887815,-0.6174391508102417,0.7652515769004822,-0.3063613772392273,-0.5661560297012329,-0.0305714607238769,0.0873672366142273,0.0020386576652526,0.7462225722735389,-0.0864330317523322,0.4576584986488962,0.4756362392278532,0.3113682445754128,0.9338358612627546,0.9770108473639556,30040,1.9529853194677755,serve,serves_watch-right
1550,1761597293694935296,36.9259352684021,0.0840231254696846,1.8837778568267824,-0.5905643701553345,0.7774357199668884,-0.3019970655441284,-0.5517168045043945,-0.0365757942199707,0.0769757032394409,-0.0135297775268554,0.7435892197587737,-0.0918408388889817,0.4644425314761464,0.4721582888316737,0.3067868395577477,0.953615032385556,0.972085849483768,30050,1.9759668961755323,serve,serves_watch-right
1560,1761597293704981248,36.93598127365112,0.0778670608997345,1.910804033279419,-0.5537671446800232,0.7894037961959839,-0.2977468073368072,-0.5368319749832153,-0.0490168333053588,0.0743123888969421,0.0047885179519653,0.7407326106448467,-0.0972690225761192,0.4712990126674107,0.4687549561781892,0.3023315560878343,0.9735872784222964,0.9675155749312424,30060,1.9909528832438812,serve,serves_watch-right
1570,1761597293715027456,36.94602727890015,0.067392311990261,1.9711326360702517,-0.5079213976860046,0.8011813163757324,-0.2937580347061157,-0.5213586688041687,-0.0493807792663574,0.0598560869693756,0.0027276873588562,0.7374890866054997,-0.1027974230667957,0.4782816733339736,0.4656063872319744,0.298155983235164,0.9939028767719688,0.9637361998974332,30070,2.0366368696760735,serve,serves_watch-right
1580,1761597293725073408,36.95607328414917,0.0583375729620456,2.060887575149536,-0.4917080700397491,0.812940239906311,-0.2899461090564728,-0.5050339698791504,-0.0272653102874755,0.0390611290931701,-0.0126814246177673,0.734000858204414,-0.1083266786715733,0.4855392303136779,0.4623414903630236,0.2941705310438056,1.0149027693132566,0.959836596544837,30080,2.1195371419173226,serve,serves_watch-right
1590,1761597293735119360,36.96611928939819,0.0719199553132057,2.1701321601867676,-0.5189557075500488,0.8248860239982605,-0.2860155701637268,-0.4876044988632202,-0.0116078257560729,0.0425768196582794,-0.0167289972305297,0.7301766222243906,-0.1141081669726819,0.4931298832095172,0.4589600073907113,0.2900660931413954,1.036933729900873,0.956033927037908,30090,2.232478689494686,serve,serves_watch-right
1600,1761597293745164288,36.9761643409729,0.076044924557209,2.2399864196777344,-0.4916534721851349,0.8369172811508179,-0.2820203304290771,-0.4690776765346527,-0.0365633964538574,0.0659101009368896,0.0055919885635375,0.7260630708575614,-0.1200420399805839,0.5010499752000211,0.455380225624949,0.2858992540756604,1.059940627485373,0.952092390720134,30100,2.2945686147080644,serve,serves_watch-right
1610,1761597293755210496,36.98621034622192,0.1120500639081001,2.2685739994049072,-0.4366626739501953,0.8486109972000122,-0.278448224067688,-0.4498064517974853,-0.0889064669609069,0.0999204218387603,0.0114214122295379,0.7214904694532612,-0.1260319727513565,0.5091293755631606,0.4520559903939766,0.2821780662840158,1.0833985469601226,0.9489187041108904,30110,2.3129326618860135,serve,serves_watch-right
1620,1761597293765256448,36.99625635147095,0.1183351203799247,2.3143444061279297,-0.4063819944858551,0.8598772287368774,-0.2753073573112488,-0.4299036264419555,-0.1075121164321899,0.1117941737174987,-0.0154088735580444,0.7168010656851577,-0.1316944494758197,0.5174019282383497,0.4484954207968261,0.278909389840911,1.1071812604746445,0.9451164657270408,30120,2.352730234500605,serve,serves_watch-right
1630,1761597293775302400,37.00630235671997,0.056816104799509,2.380052089691162,-0.3661794364452362,0.8708190321922302,-0.27227783203125,-0.4093153178691864,-0.0996245741844177,0.09716796875,-0.0222032666206359,0.7116021640556045,-0.1376629006273198,0.5257292657954211,0.4452864712053369,0.2757595027580503,1.131406856008758,0.9425294167113624,30130,2.4087265098145134,serve,serves_watch-right
1640,1761597293785349120,37.01634907722473,0.0086030345410108,2.4375834465026855,-0.3171865940093994,0.8813947439193726,-0.2693382799625397,-0.3880723416805267,-0.096253752708435,0.0753990709781646,-0.0100752115249633,0.7061486643300106,-0.143659494238169,0.5341589443795133,0.4420296647932697,0.2727058518463821,1.1560436247825472,0.9400634263881352,30140,2.4581485728666825,serve,serves_watch-right
1650,1761597293795395072,37.026395082473755,0.031447634100914,2.4899978637695312,-0.2811031639575958,0.8915138840675354,-0.2667054235935211,-0.3661573529243469,-0.0869942307472229,0.0617493689060211,0.0058363378047943,0.7001867167098975,-0.1498573400080377,0.5426454626972304,0.4391095855012691,0.269972995715433,1.1810878772960964,0.9386807052933008,30150,2.506012231425526,serve,serves_watch-right
1660,1761597293805441024,37.03644108772278,0.0682602375745773,2.5077648162841797,-0.2686832547187805,0.9011215567588806,-0.2643944025039673,-0.3436213433742523,-0.0518020987510681,0.0588127076625824,0.0258570313453674,0.6941280699967906,-0.1557455196633661,0.5513008832082261,0.4358863520258814,0.267575909846093,1.2064908795410962,0.9365383031358812,30160,2.5230407299908655,serve,serves_watch-right
1670,1761597293815487232,37.0464870929718,0.0478045009076595,2.567854881286621,-0.2826118469238281,0.9103026986122132,-0.2620639204978943,-0.3204241096973419,-0.0009399056434631,0.0682315230369567,0.0298205018043518,0.687718646942701,-0.1618335735201725,0.559998067170934,0.4327299297629531,0.2651602450955309,1.232343255361956,0.9349425524742372,30170,2.5838021243269105,serve,serves_watch-right
1680,1761597293825531904,37.05653190612793,0.0630763918161392,2.5999937057495117,-0.2500584423542022,0.9190208911895752,-0.2597534656524658,-0.2965277135372162,0.0303962230682373,0.0704834163188934,0.0699042081832885,0.6812897383112958,-0.1676512131204089,0.5688841854749394,0.4290781649078254,0.2627668934009453,1.2586858436168131,0.9322501259140116,30180,2.612752404215568,serve,serves_watch-right
1690,1761597293835577856,37.06657791137695,0.0840142369270324,2.6056525707244873,-0.2154268622398376,0.9270455241203308,-0.2578141987323761,-0.2722472846508026,0.0237449407577514,0.0767228901386261,0.079071044921875,0.6743767186787183,-0.1736370035834503,0.5776906983865532,0.4258400693089736,0.2607592286071764,1.2851551109013435,0.9307784266581728,30190,2.6158922845377375,serve,serves_watch-right
1700,1761597293845624064,37.07662391662598,0.0594603195786476,2.6475608348846436,-0.1701074093580246,0.9343906044960022,-0.2561790645122528,-0.2475610524415969,0.0208095908164978,0.0677635371685028,0.0462061166763305,0.667289634828658,-0.1794165330751051,0.5865400082405939,0.4224985919083237,0.2590672805654378,1.3118030530861962,0.9290634779857836,30200,2.653686197487933,serve,serves_watch-right
1710,1761597293855670016,37.086669921875,-0.0049953642301261,2.698669672012329,-0.1528418660163879,0.9411141276359558,-0.2546962201595306,-0.2223377525806427,0.0201895236968994,0.0615199506282806,0.0362415313720703,0.6597833820628325,-0.1853925377837936,0.5953660505616977,0.4193504606245508,0.2575335542618024,1.3388005893628618,0.9281520648116732,30210,2.702998998947335,serve,serves_watch-right
1720,1761597293865715968,37.09671592712402,-0.0837408155202865,2.755103349685669,-0.1216833293437957,0.947216272354126,-0.2532622814178467,-0.1965692639350891,0.0164372324943542,0.056759625673294,0.0423792153596878,0.6519047582893922,-0.1915661856699023,0.6041669997738746,0.4162988816870052,0.256050993311267,1.366177581947255,0.9278678959039884,30220,2.7590603154467983,serve,serves_watch-right
1730,1761597293875761920,37.10676193237305,-0.1324960887432098,2.7981865406036377,-0.0929608717560768,0.9526061415672302,-0.2520045936107635,-0.1703974902629852,0.0156861543655395,0.065221756696701,0.0501887798309326,0.643589433934129,-0.1979888834511554,0.6128634897643477,0.4135110909101335,0.2547511456561248,1.3937932265020183,0.9286090869078228,30230,2.8028636879493893,serve,serves_watch-right
1740,1761597293885807872,37.11680793762207,-0.1812880039215088,2.8622920513153076,-0.0749972313642501,0.9572853446006776,-0.2509143948554992,-0.1436889916658401,0.0145162940025329,0.0718983113765716,0.0540283471345901,0.6349535129216094,-0.2044635909143882,0.6215707074740787,0.4107048045349404,0.2536247599536294,1.4218081135722251,0.9295829244987656,30240,2.8690077922691217,serve,serves_watch-right
1750,1761597293895853056,37.12685298919678,-0.2517744302749634,2.9228973388671875,-0.0270755086094141,0.961202085018158,-0.2500949203968048,-0.1163742989301681,0.0113320350646972,0.0727420151233673,0.0697587206959724,0.6258294888315475,-0.2111523172661578,0.6302599052437992,0.4080741897557638,0.252778275678636,1.4503111198591363,0.9313589633206965,30250,2.9338459912653265,serve,serves_watch-right
1760,1761597293905899008,37.1368989944458,-0.2963295876979828,2.9536542892456055,0.0144575536251068,0.964234173297882,-0.2497643828392028,-0.0887152552604675,-0.002091109752655,0.0903100371360778,0.0600287243723869,0.6163202822099824,-0.2178286087348942,0.6388998897249749,0.4055946603228694,0.2524369240547303,1.4790487036615931,0.933601523802764,30260,2.9685171223661553,serve,serves_watch-right
1770,1761597293915944960,37.146944999694824,-0.3838895261287689,3.0221407413482666,0.0496016889810562,0.9663978815078736,-0.2498061060905456,-0.06059530377388,-0.0064218640327453,0.1016432791948318,0.060885202139616,0.6063159867941501,-0.2247038960338525,0.6474646760182695,0.4033341488552351,0.2524800003406426,1.5081760732739338,0.9367091906366496,30270,3.046828868896019,serve,serves_watch-right
1780,1761597293925991168,37.15699100494385,-0.4768379330635071,3.095733165740967,0.0948285534977912,0.9676437377929688,-0.2502875924110412,-0.0319619886577129,-0.0163193345069885,0.0953193306922912,0.104715883731842,0.5957525966401005,-0.2318183965572036,0.6559567345163204,0.4013225151626427,0.2529772878728762,1.5377775933617468,0.9407863888755704,30280,3.1336768663082273,serve,serves_watch-right
1790,1761597293936037120,37.16703701019287,-0.5692411065101624,3.181144952774048,0.1696913391351699,0.9678683280944824,-0.2514415979385376,-0.0028320376295596,-0.0485873222351074,0.1022106409072876,0.1312042474746704,0.584510341753874,-0.239213655529261,0.6643499139403318,0.3997045092165879,0.2541694216208194,1.567870278384889,0.9461444547362532,30290,3.236126357001253,serve,serves_watch-right
1800,1761597293946083072,37.177083015441895,-0.6414774656295776,3.2765493392944336,0.2565724551677704,0.9669305086135864,-0.2536041438579559,0.027031123638153,-0.0643119812011718,0.1181976497173309,0.1315077543258667,0.5725417459777774,-0.2466421005001433,0.6728173865518813,0.3983472728557551,0.2564043986130787,1.5987446481695493,0.9521494690483452,30300,3.348596472627323,serve,serves_watch-right
1810,1761597293956129024,37.18712902069092,-0.714827299118042,3.3271305561065674,0.2733338475227356,0.9648571014404296,-0.2564449906349182,0.0573300458490848,-0.0756970047950744,0.1313992440700531,0.1646395921707153,0.5599423225239509,-0.2542622650271184,0.6811869958847726,0.3972399593973287,0.2593423839149694,1.6301447200567718,0.9590380394583404,30310,3.4140133563218487,serve,serves_watch-right
1820,1761597293966174208,37.197174072265625,-0.8375471830368042,3.3886990547180176,0.3094981610774994,0.9616684317588806,-0.2597799301147461,0.0877970233559608,-0.1130508780479431,0.1471090614795684,0.1840231418609619,0.5468786539774558,-0.2620103195194931,0.6893831340926563,0.3962641448890294,0.2627943065163369,1.6618405004432597,0.9665321934819956,30320,3.5043623783749913,serve,serves_watch-right
1830,1761597293976220160,37.20722007751465,-0.95368230342865,3.4546005725860596,0.3713402450084686,0.957237422466278,-0.2639693915843963,0.118391640484333,-0.1324541568756103,0.1706771850585937,0.187135100364685,0.533090962292959,-0.2700826723807685,0.6973171235266589,0.3957501194892798,0.2671352740459719,1.6938519517592172,0.9754879479292976,30330,3.6030082749763226,serve,serves_watch-right
1840,1761597293986266112,37.21726608276367,-1.0413039922714231,3.5324478149414062,0.4299229383468628,0.9514699578285216,-0.2691424489021301,0.1492217034101486,-0.1133047938346862,0.1721881031990051,0.1933076232671737,0.5186826259890425,-0.2781351106616145,0.7051607708500801,0.3954205643175988,0.2725025052917467,1.7263619350741266,0.9848701370124544,30340,3.7077399184033286,serve,serves_watch-right
1850,1761597293996312064,37.227312088012695,-1.09707510471344,3.597144842147827,0.4911543428897857,0.944314181804657,-0.2752792835235595,0.180255189538002,-0.0978786945343017,0.1681015491485595,0.2063262313604354,0.5035618948029796,-0.2863206655407718,0.7128450555203607,0.3953451234352604,0.2788801933085094,1.759412077209371,0.9950250570883952,30350,3.792658353887444,serve,serves_watch-right
1860,1761597294006358272,37.23735809326172,-1.1383527517318726,3.7071046829223633,0.5628767013549805,0.9356627464294434,-0.2824337780475616,0.2115799337625503,-0.1072174906730651,0.1846096813678741,0.2093642652034759,0.4878234073510667,-0.2943374164342056,0.7205244275021755,0.3952698244269336,0.2863302219035434,1.7931845444646837,1.0050096481818325,30360,3.9185842211758963,serve,serves_watch-right
1870,1761597294016404224,37.24740409851074,-1.1113405227661133,3.8668196201324463,0.6624472737312317,0.9252387881278992,-0.2907204926013946,0.2437509000301361,-0.1218942403793335,0.1947885155677795,0.1943746358156204,0.4711437718996044,-0.3023372217466292,0.7283321052096979,0.3951556448146106,0.2949797630091746,1.8283899169492377,1.0149292707221012,30370,4.077524754389265,serve,serves_watch-right
1880,1761597294026450176,37.257450103759766,-1.0701409578323364,3.978470087051392,0.7207934260368347,0.9129264950752258,-0.2999584972858429,0.2767497897148132,-0.141426682472229,0.2118695080280304,0.1680438816547393,0.45367529723518,-0.3100816113914343,0.7363588076363754,0.3947200883439937,0.3046491429194091,1.865136640895437,1.0239015794126756,30380,4.18245969092482,serve,serves_watch-right
1890,1761597294036496128,37.26749610900879,-1.0716720819473269,4.095460414886475,0.74998539686203,0.8987767696380615,-0.3097891509532928,0.310211569070816,-0.1499211192131042,0.2378744781017303,0.1536251604557037,0.4354353918639896,-0.317904432543766,0.7443403546648253,0.3940689491066244,0.3149712759329439,1.903142695086013,1.0326963467343289,30390,4.2992737940998484,serve,serves_watch-right
1900,1761597294046541056,37.27754092216492,-1.1763272285461426,4.2620134353637695,0.7946951985359192,0.882612407207489,-0.3203526735305786,0.344048261642456,-0.1407150030136108,0.2330876886844635,0.1461555361747741,0.416439380585899,-0.3255988960479987,0.7523360228592061,0.3931335564051102,0.3261017514152045,1.9424846467690144,1.040830752101742,30400,4.492220467699284,serve,serves_watch-right
1910,1761597294056587008,37.28758692741394,-1.363092064857483,4.477304935455322,0.8367883563041687,0.8640872240066528,-0.3321198523044586,0.3782186210155487,-0.1402867436408996,0.1908998191356659,0.1150369048118591,0.3960913440283184,-0.3337910305377592,0.7600610903472853,0.3924311787165576,0.3385501225205965,1.9833820408773184,1.050201473207946,30410,4.75441838878072,serve,serves_watch-right
1920,1761597294066632960,37.29763293266296,-1.4732232093811035,4.7417497634887695,0.8514672517776489,0.84292072057724,-0.3450213968753814,0.4128501713275909,-0.1546118855476379,0.1561786234378814,0.1226876378059387,0.3743778821726327,-0.3423146206073804,0.7676234640553162,0.3916838609611213,0.3522615839038924,2.026238821984449,1.0600536540988317,30420,5.037814399623585,serve,serves_watch-right
1930,1761597294076678912,37.30767893791199,-1.385106086730957,4.9742817878723145,0.8744684457778931,0.81882244348526,-0.3584546148777008,0.4483752250671386,-0.1916250586509704,0.1563672125339508,0.1352429986000061,0.3513027668557908,-0.3511955047142383,0.7751447107365088,0.3903829321396177,0.3666119865450588,2.0717838330080163,1.0696248997584143,30430,5.237050051251996,serve,serves_watch-right
1940,1761597294086725120,37.31772494316101,-1.1959218978881836,5.15888786315918,0.8653344511985779,0.7918869256973267,-0.3715445399284363,0.4846340119838714,-0.2303175926208496,0.1821829378604889,0.0948796868324279,0.3274720271568341,-0.3599010395947013,0.7828079267643165,0.3878726552008313,0.3806720903244198,2.119991937723687,1.0769887835634029,30440,5.365925538332665,serve,serves_watch-right
1950,1761597294096771072,37.327770948410034,-1.001718044281006,5.317485332489014,0.8444376587867737,0.7621188759803772,-0.3837189674377441,0.5214732885360718,-0.2339817881584167,0.2214875519275665,0.0477100014686584,0.3030002740797805,-0.3685998903381453,0.7904876723796895,0.3839975710823472,0.3938201857389103,2.1708675544909646,1.0823169010038918,30450,5.476510226508415,serve,serves_watch-right
1960,1761597294106817024,37.33781695365906,-0.9971489906311036,5.443272113800049,0.8008394837379456,0.7297442555427551,-0.3952264487743377,0.5579151511192322,-0.2374805212020874,0.2306604385375976,0.0233531594276428,0.2780351852367336,-0.3772588277410558,0.797893077556589,0.3791290638993529,0.4063143643082895,2.2235352390364693,1.0862608603675032,30460,5.591499020218419,serve,serves_watch-right
1970,1761597294116862976,37.34786295890808,-1.1897070407867432,5.6218390464782715,0.7584728598594666,0.694588303565979,-0.4070452153682709,0.5931789875030518,-0.2641836404800415,0.2146776616573333,0.0523440837860107,0.2520089973312894,-0.386462564626697,0.8045098990589992,0.3740347472623014,0.4192168327123831,2.2776084816711433,1.0911707870415726,30470,5.796184795755624,serve,serves_watch-right
1980,1761597294126908160,37.35790801048279,-1.4126970767974854,5.857388496398926,0.713431715965271,0.6563379764556885,-0.4200022220611572,0.6267527341842651,-0.2721214890480041,0.185413509607315,0.0707572102546691,0.2246890780889319,-0.3959808486776222,0.8102934916752962,0.3689696202924122,0.4334477665486565,2.333140773869223,1.0969409719131935,30480,6.067429261382763,serve,serves_watch-right
1990,1761597294136954112,37.36795401573181,-1.6190752983093262,6.084827423095703,0.7057183980941772,0.6147341132164001,-0.4343183040618896,0.6583843231201172,-0.2730134725570678,0.1272808909416198,0.0885944962501525,0.1957891361593568,-0.4060417246072845,0.8150596873114196,0.3639705290679132,0.4492813263290254,2.3904671478271355,1.1040690888604536,30490,6.335974119885713,serve,serves_watch-right
2000,1761597294147000064,37.378000020980835,-1.7842085361480713,6.292705059051514,0.7483499050140381,0.569632887840271,-0.450164794921875,0.6876552700996399,-0.2742227911949157,0.0947113931179046,0.098645269870758,0.1654379527079694,-0.4160841471286319,0.8189637371888498,0.3588907420352317,0.4669498745035463,2.449790809158187,1.1111444901796006,30500,6.583431069055913,serve,serves_watch-right
2010,1761597294157046016,37.38804602622986,-1.846587300300598,6.396942615509033,0.785947859287262,0.5213843584060669,-0.4671865403652191,0.7140695452690125,-0.2734595537185669,0.1446309983730316,0.0998343229293823,0.1338717156612401,-0.4260696036985697,0.821887748684242,0.3536151187984283,0.4861060062227798,2.5109111434676947,1.117951312274773,30510,6.704362275508777,serve,serves_watch-right
2020,1761597294167091968,37.39809203147888,-1.898104786872864,6.53605842590332,0.8429241180419922,0.4703707695007324,-0.4848717749118805,0.737326443195343,-0.268558144569397,0.1993188858032226,0.0927057266235351,0.1015561616465292,-0.4354936635873572,0.8240197102072844,0.3478836133551735,0.5062165536391409,2.5737415092146025,1.1230425272551656,30520,6.858088844390129,serve,serves_watch-right
2030,1761597294177138176,37.408138036727905,-1.9088846445083616,6.648186683654785,0.900764524936676,0.4164661169052124,-0.5030714869499207,0.7572814226150513,-0.2644733190536499,0.2206770777702331,0.0987671613693237,0.0682882453703701,-0.4446065498670735,0.825206477783344,0.341608004746873,0.5271490548178709,2.6387886472927997,1.126774238873172,30530,6.975213509000927,serve,serves_watch-right
2040,1761597294187184128,37.41818404197693,-1.869440674781799,6.672652244567871,0.9443449378013612,0.3604645729064941,-0.5211899280548096,0.7735803723335266,-0.2656464278697967,0.2381393313407898,0.1284735202789306,0.0347035207056011,-0.4529215179166441,0.825622370749473,0.3346723077256763,0.5482446502269166,2.7055384427396665,1.1279465471240944,30540,6.993631658517364,serve,serves_watch-right
2050,1761597294197229056,37.42822909355163,-1.9347964525222776,6.6160993576049805,0.998650848865509,0.3032467663288116,-0.5392309427261353,0.785666286945343,-0.2642300128936767,0.2310796380043029,0.1653530597686767,0.001014856931961,-0.460609670870285,0.8250283995663877,0.3273619870853912,0.5695236722490294,2.7732358032778737,1.1273320625107464,30550,6.965164143100551,serve,serves_watch-right
2060,1761597294207275264,37.43827509880066,-2.062459707260132,6.575825214385986,1.0415191650390625,0.2452565133571624,-0.5577873587608337,0.7929204106330872,-0.2504444718360901,0.1954063177108764,0.1995723247528076,-0.0327339857091018,-0.4672928554613632,0.8234668176834143,0.3201067755998756,0.5917174863858018,2.8416185681111776,1.1243743189840445,30560,6.969933964204375,serve,serves_watch-right
2070,1761597294217321216,37.44832110404968,-2.49186110496521,6.472201824188232,1.0759085416793823,0.1870821714401245,-0.5780780911445618,0.794245719909668,-0.2348879277706146,0.1249530315399169,0.2447253465652465,-0.0669096300868991,-0.4732071493403511,0.8204863449797442,0.3136882568922766,0.6163713888102175,2.9102624016468224,1.120217116978078,30570,7.018286643442441,serve,serves_watch-right
2080,1761597294227367168,37.458367109298706,-3.258263111114502,6.240152359008789,1.1058645248413086,0.1300974190235138,-0.6024935245513916,0.7874491214752197,-0.229157492518425,0.0820925831794738,0.3124348521232605,-0.1016805824109179,-0.477804596619605,0.815737284708775,0.3097361448161462,0.6466216941533828,2.977857951783563,1.1146979032307684,30580,7.125918629355446,serve,serves_watch-right
2090,1761597294237413120,37.46841311454773,-4.201572895050049,6.167377948760986,1.16866135597229,0.0745864808559417,-0.6328734755516052,0.7706544399261475,-0.2217879891395568,0.0753782987594604,0.4312957525253296,-0.1378374130017488,-0.4809512799043935,0.8087107632197618,0.3093116607820738,0.6852589148915194,3.0451098601523556,1.1074853826145492,30590,7.553511429807035,serve,serves_watch-right
2100,1761597294247458816,37.478458881378174,-4.988376140594482,6.2438130378723145,1.2496864795684814,0.0194053594022989,-0.6685289740562439,0.743432879447937,-0.1846580505371093,-0.0062299370765686,0.5493985414505005,-0.1759631662381839,-0.4820969077820363,0.7995617627172258,0.3119623815059257,0.7322290124381043,3.115496209249044,1.0951795492116063,30600,8.088931577728475,serve,serves_watch-right
2110,1761597294257505024,37.4885048866272,-5.446982383728027,6.153279781341553,1.412380337715149,-0.0350438430905342,-0.7065100073814392,0.7068348526954651,-0.1987665891647339,-0.0916162133216857,0.6467875242233276,-0.2154908079712083,-0.4814913644948305,0.7884056585793339,0.3164589486756825,0.7845545120393133,-3.092054670441564,1.0760239312690636,30610,8.338302427621258,serve,serves_watch-right
2120,1761597294267549952,37.498549938201904,-5.821704387664795,5.8763957023620605,1.692101240158081,-0.0878718197345733,-0.7442193031311035,0.662129819393158,-0.2394749820232391,-0.1266607642173767,0.70125812292099,-0.2552205586312334,-0.4783788096598079,0.7760274578956524,0.3221761648866238,0.8393652748243733,-3.00965276162177,1.0459094197603167,30620,8.443191045750376,serve,serves_watch-right
2130,1761597294277595904,37.50859594345093,-5.283514499664307,6.056140899658203,1.8756886720657349,-0.1397579461336136,-0.7781387567520142,0.6123464703559875,-0.1893131136894226,-0.1675706505775451,0.7917978763580322,-0.2946479126445348,-0.4735124955901604,0.7628624798900584,0.3271230688543022,0.8916970439902578,-2.9172027056260146,1.003415273519853,30630,8.252913186214402,serve,serves_watch-right
2140,1761597294287642112,37.51864194869995,-4.3562445640563965,6.0177812576293945,1.98977792263031,-0.1911588311195373,-0.8034385442733765,0.5638662576675415,-0.1611208617687225,-0.190458059310913,0.8846201300621033,-0.3325650525119998,-0.4689601728895313,0.7496729279251705,0.3278222976165821,0.9330482016099578,-2.81473781890354,0.9522885415476342,30640,7.690889034951259,serve,serves_watch-right
2150,1761597294297688064,37.528687953948975,-3.261852264404297,5.586083889007568,1.959178686141968,-0.2390158027410507,-0.8199470043182373,0.52015221118927,-0.256452351808548,-0.0034782886505126,0.8808029890060425,-0.3667261540713376,-0.4649088391968076,0.7375200758123688,0.3247088140335975,0.9613184254869844,-2.7108573371368303,0.8977369283521696,30650,6.758875241788557,serve,serves_watch-right
2160,1761597294307734016,37.538733959198,-2.5600461959838867,5.203847885131836,1.8289796113967896,-0.2819790840148926,-0.8291997313499451,0.4826132953166961,-0.2444186210632324,0.210181176662445,1.0455543994903564,-0.396418502047306,-0.4616546639065054,0.7267610498037365,0.3186624089435363,0.9776744718898054,-2.612815608374748,0.8458026953846631,30660,6.081039035894096,serve,serves_watch-right
2170,1761597294317779968,37.54877996444702,-2.3840224742889404,5.214228630065918,1.588212013244629,-0.3207367062568664,-0.8352938890457153,0.446556031703949,-0.1612884402275085,0.0506106615066528,1.0330735445022583,-0.4239224183823717,-0.459307150973585,0.7157617994256262,0.3114672327012267,0.9886671052236956,-2.518726297018204,0.7974659165744101,30670,5.94929918255322,serve,serves_watch-right
2180,1761597294327825920,37.558825969696045,-2.530179738998413,5.438059329986572,1.2792068719863892,-0.3560860455036163,-0.8406067490577698,0.4081456363201141,-0.1444632411003112,-0.2540281414985657,0.9845697283744812,-0.4510007453831763,-0.457545109203156,0.7033671073311732,0.3041799861491028,0.9984024741594036,-2.424209569621877,0.7501684773171228,30680,6.132753786793441,serve,serves_watch-right
2190,1761597294337872128,37.56887197494507,-2.888485908508301,5.7206854820251465,1.0327565670013428,-0.3877063691616058,-0.8467424511909485,0.3642952442169189,-0.2617076933383941,-0.4065534472465515,0.908531904220581,-0.4787052993476891,-0.4559906468218523,0.6886364396864723,0.2978147375836144,1.009831923417598,-2.325072793428296,0.7004099874927145,30690,6.491238661040642,serve,serves_watch-right
2200,1761597294347917056,37.578917026519775,-3.0238049030303955,6.072616100311279,0.9245781302452089,-0.4161220788955688,-0.8528894782066345,0.3153122365474701,-0.4622347950935364,-0.3260807991027832,0.9843703508377076,-0.5072019224765866,-0.4545189869200796,0.6716164097858041,0.291701996357452,1.0214950028041074,-2.2192324773516554,0.6467764642625501,30700,6.84652518525114,serve,serves_watch-right
2210,1761597294357963008,37.5889630317688,-3.311660051345825,6.382392883300781,0.6849746108055115,-0.4414772391319275,-0.8583947420120239,0.2612591683864593,-0.5893455147743225,-0.4230536222457886,1.0860766172409058,-0.5365640898882857,-0.4528971666878301,0.6523141408850921,0.2854284378745662,1.032132177088709,-2.1051527575432605,0.5880157977663608,30710,7.222964864232447,serve,serves_watch-right
2220,1761597294368009216,37.59900903701782,-3.48490047454834,6.86218786239624,0.4623702764511108,-0.4617984294891357,-0.863774299621582,0.201584443449974,-0.6191494464874268,-0.570734977722168,1.1239312887191772,-0.5665801729951213,-0.4512226220737982,0.630230406400175,0.2796332229218288,1.042712751301444,-1.9823842562414975,0.5234605271323228,30720,7.710249013415261,serve,serves_watch-right
2230,1761597294378055168,37.609055042266846,-3.4617364406585693,7.271921157836914,0.1816834658384323,-0.4767736196517944,-0.8681350946426392,0.1379433423280716,-0.7480036020278931,-0.5779556035995483,1.1909445524215698,-0.5969262424920713,-0.4499677818519194,0.6053929853449271,0.2733265552465512,1.051432514426655,-1.852432570970591,0.455865210314775,30730,8.055896312151658,serve,serves_watch-right
2240,1761597294388101120,37.61910104751587,-3.4811148643493652,7.738559722900391,-0.0113922413438558,-0.4854869246482849,-0.8713247179985046,0.0713851600885391,-0.8649921417236328,-0.7280405163764954,1.172602891921997,-0.6272817805741802,-0.4494474012058865,0.5776587347962474,0.2661297759418282,1.057895482713988,-1.716788471663787,0.387394003855573,30740,8.485493330788323,serve,serves_watch-right
2250,1761597294398147072,37.62914705276489,-3.7055506706237793,8.343542098999023,0.0577633902430534,-0.4884774386882782,-0.8725764155387878,0.0003243159444537,-0.9577810764312744,-0.8887913227081299,1.1658133268356323,-0.6582679950851748,-0.4485481355884647,0.5467784999685077,0.2579167288065684,1.0604520913198232,-1.571460258969446,0.3141773894835221,30750,9.129574860834525,serve,serves_watch-right
2260,1761597294408193024,37.63919305801392,-3.430210590362549,8.745073318481445,-0.2439517080783844,-0.4847127199172973,-0.8716174364089966,-0.0730521008372306,-1.0183695554733276,-0.9568126797676086,1.240990400314331,-0.6891338788422273,-0.4476376513288608,0.5129273649445137,0.248234848608744,1.058492334345309,-1.421209959407549,0.2411730219460486,30760,9.396923138758018,serve,serves_watch-right
2270,1761597294418238208,37.64923810958862,-3.198415517807007,9.11739444732666,-0.4728552103042602,-0.4716985821723938,-0.8697895407676697,-0.1447988748550415,-1.0296900272369385,-1.0291056632995603,1.2396475076675415,-0.7183252603148478,-0.447905115317201,0.4764258295483056,0.2375043498307382,1.05477561093615,-1.2729543500633853,0.1743155795125356,30770,9.673692954740892,serve,serves_watch-right
2280,1761597294428283904,37.65928387641907,-3.1599416732788086,9.556464195251465,-0.7432897686958313,-0.4495759308338165,-0.8667899370193481,-0.2157701849937439,-1.140817165374756,-1.0585182905197144,1.2683367729187012,-0.7462560359233043,-0.4485481735691516,0.4369432996098209,0.2258032010256108,1.0487286850982185,-1.123323834623205,0.1104493257170878,30780,10.092755767078444,serve,serves_watch-right
2290,1761597294438329856,37.66932988166809,-3.1002631187438965,9.99910831451416,-1.104154109954834,-0.4168815314769745,-0.8629270195960999,-0.2855991423130035,-1.2978553771972656,-1.08259916305542,1.4235692024230957,-0.7727361036224121,-0.4493753718728135,0.394033251527624,0.2137254447775183,1.0410336316370403,-0.9701509587162396,0.0471767924673173,30790,10.526773237291662,serve,serves_watch-right
2300,1761597294448376064,37.679375886917114,-2.8034987449645996,10.403569221496582,-1.5252176523208618,-0.3728572726249695,-0.8585583567619324,-0.3519306182861328,-1.4957492351531982,-1.1038899421691897,1.4618396759033203,-0.797126315261172,-0.4506830997997088,0.3477347233633744,0.2013828688856984,1.0324512261402137,-0.8142629701606743,-0.0148603186690539,30800,10.882102124426156,serve,serves_watch-right
2310,1761597294458422016,37.68942189216614,-2.143596649169922,10.778803825378418,-2.05092453956604,-0.3168418109416961,-0.8552035093307495,-0.4101685285568237,-1.6513893604278564,-1.1572476625442505,1.4593170881271362,-0.8182023232762158,-0.4537921720251169,0.2983092445450652,0.1887569183105485,1.0259433215438694,-0.6577258716006227,-0.0736580623181958,30810,11.179620296205014,serve,serves_watch-right
2320,1761597294468467968,37.69946789741516,-1.3901128768920898,11.048389434814451,-2.679506301879883,-0.2490247339010238,-0.8542314767837524,-0.4563720226287842,-1.8130327463150024,-1.1913617849349976,1.4094665050506592,-0.8350287253384061,-0.4597203673938594,0.2459088848619361,0.1758212645668418,1.0240707483180536,-0.4995063733748878,-0.1302659288134484,30820,11.453343482827833,serve,serves_watch-right
2330,1761597294478513920,37.709513902664185,-0.6478901505470276,11.232723236083984,-3.557020902633667,-0.1693228334188461,-0.855848491191864,-0.4887261986732483,-1.976673245429993,-1.1526355743408203,1.438936710357666,-0.8469303652639768,-0.4681748493113314,0.190916747178626,0.1645363363962995,1.02718905469459,-0.333515383647842,-0.1944394786479864,30830,11.800264007530075,serve,serves_watch-right
2340,1761597294488559104,37.71955895423889,0.1040584146976471,11.321626663208008,-4.543262481689453,-0.0780050605535507,-0.8595424890518188,-0.5050760507583618,-2.1643502712249756,-1.0633394718170166,1.4768626689910889,-0.8534626674733304,-0.4793564864459913,0.1329636685823464,0.1553687034921067,1.0343738395577398,-0.1532315555911212,-0.2728676575478388,30840,12.19964312725003,serve,serves_watch-right
2350,1761597294498605056,37.729604959487915,0.7263485789299011,11.234384536743164,-5.591524600982666,0.0232040435075759,-0.8630713224411011,-0.5045486688613892,-2.382106065750122,-1.0675621032714844,1.4997422695159912,-0.854212162326836,-0.492329785919751,0.0730550561390079,0.1503190366507424,1.041319261262213,0.0459573191844061,-0.3747376410021531,30850,12.569969194111884,serve,serves_watch-right
2360,1761597294508651008,37.73965096473694,1.5177717208862305,11.061562538146973,-6.783845901489258,0.132437452673912,-0.8636250495910645,-0.4864278137683868,-2.5925967693328857,-1.0310587882995603,1.6495747566223145,-0.8492022994678887,-0.5066287206162925,0.0106507756857596,0.148557296145104,1.0424166202263363,0.2658221010653989,-0.4996009267146608,30860,13.06454599277032,serve,serves_watch-right
2370,1761597294518696960,37.74969696998596,2.744521379470825,10.741390228271484,-8.15554141998291,0.2483936250209808,-0.8592150807380676,-0.4472696185111999,-2.8022265434265137,-0.8703076243400574,1.8384897708892824,-0.8369464064960863,-0.5229950542968551,-0.0533044276052329,0.1521694436065457,1.0337334345287603,0.5069455954472989,-0.6520862569301935,30870,13.763092584569627,serve,serves_watch-right
2380,1761597294528742912,37.759742975234985,4.144712924957275,9.957395553588867,-9.888960838317873,0.3690788745880127,-0.8455261588096619,-0.3858318030834198,-2.9688103199005127,-0.6204619407653809,1.9698162078857424,-0.8162517569652353,-0.5414889144052737,-0.1177872956915402,0.1632449855166192,1.007549886055455,0.7632098518038131,-0.8301456282903645,30880,14.63283697383128,serve,serves_watch-right
2390,1761597294538789120,37.76978898048401,6.269086837768555,8.580705642700195,-11.905233383178713,0.4925983846187591,-0.8159890174865723,-0.3025041222572326,-3.079146146774292,-0.1772208213806152,2.0426926612854004,-0.7854466671496546,-0.5621328682971779,-0.1809822450589546,0.1852716590915014,0.9544380324447904,1.020074426677086,-1.026440506588143,30890,15.958212337668112,serve,serves_watch-right
2400,1761597294548835072,37.77983498573303,8.160810470581055,6.629183292388916,-13.687585830688477,0.6139171719551086,-0.7629820108413696,-0.202395886182785,-3.2146406173706055,0.2604338526725769,1.999133586883545,-0.7434359331372938,-0.5841926195864707,-0.2398354498485342,0.2202292580629379,0.8679137483346329,1.2523378693481513,-1.222804358091664,30900,17.25963222474041,serve,serves_watch-right
2410,1761597294558880000,37.78988003730774,9.06691551208496,4.388258457183838,-15.40163230895996,0.727999210357666,-0.6778945922851562,-0.1023520529270172,-3.316652774810791,0.5275192856788635,2.152690887451172,-0.6924100205096038,-0.602690062670035,-0.292555398474828,0.2678512896108815,0.7448949636698825,1.4311182086510592,-1.392972719870934,30910,18.403153180113772,serve,serves_watch-right
2420,1761597294568926208,37.79992604255676,9.33726692199707,1.9345953464508057,-17.093475341796875,0.8310801386833191,-0.5557684302330017,-0.0206650719046592,-3.390253782272339,0.958554744720459,2.4194841384887695,-0.6350751704976663,-0.6121728641172435,-0.3389865025780291,0.3271268007453669,0.5892870133492671,1.545936132133582,-1.5269193142569195,30920,19.57330099875204,serve,serves_watch-right
2430,1761597294578972160,37.809972047805786,9.935736656188965,-0.7460270524024963,-17.689687728881836,0.9154168367385864,-0.4013389647006988,0.0306421741843223,-3.513042688369751,1.3141502141952517,2.3579533100128174,-0.5729389455979268,-0.6107029247771969,-0.3773102504070315,0.3954994913742857,0.4129782326699664,1.6042572985408357,-1.634989245180549,30930,20.30272078341733,serve,serves_watch-right
2440,1761597294589018112,37.82001805305481,11.023584365844728,-3.871894121170044,-17.61020851135254,0.9723891019821168,-0.2294511944055557,0.0425599291920661,-3.6423263549804688,1.074711799621582,1.801998734474182,-0.5069059365639443,-0.599753936660385,-0.401964153102206,0.470920687295351,0.231513793323906,1.6145368252337382,-1.7389969245031982,30940,21.133632441437058,serve,serves_watch-right
2450,1761597294599064064,37.83006405830383,11.002995491027832,-7.425069808959961,-17.164798736572266,0.99854177236557,-0.0539355538785457,0.0023334096185863,-4.00137996673584,1.0792651176452637,1.1028454303741455,-0.4412731091208056,-0.5758026248435617,-0.4118471099630313,0.551462986715778,0.0539617387904277,1.5731331396583066,-1.8459716320974344,30950,21.698568780233877,serve,serves_watch-right
2460,1761597294609110016,37.840110063552856,10.988106727600098,-10.438516616821287,-16.183408737182617,0.9899224042892456,0.1083941310644149,-0.0911289304494857,-4.686028480529785,1.7865796089172363,1.042880654335022,-0.3794030152177724,-0.5372615735664714,-0.4071677002698307,0.6337332902230026,-0.1086075199179545,1.4789984136491214,-1.9636119869530488,30960,22.17214101009425,serve,serves_watch-right
2470,1761597294619156224,37.85015606880188,11.083739280700684,-11.60109806060791,-14.88136386871338,0.9448713064193726,0.2433574348688125,-0.2190786451101303,-5.055619716644287,1.4557087421417236,1.040718674659729,-0.322482792297027,-0.4867120673658433,-0.3918826891730058,0.7110163099751079,-0.2458258543796983,1.3429613182525466,-2.094272846392075,30970,21.883549603467806,serve,serves_watch-right
2480,1761597294629202176,37.8602020740509,11.334872245788574,-11.756897926330566,-12.550751686096191,0.8703340291976929,0.3366773128509521,-0.3593983650207519,-5.949878215789795,1.0642931461334229,0.805473804473877,-0.2674067999923284,-0.4330703254369485,-0.3643499839527234,0.7798671968683197,-0.3433859574230161,1.179182196855283,-2.249978894566628,30980,20.596731429150367,serve,serves_watch-right
2490,1761597294639246848,37.87024688720703,11.627138137817385,-10.627890586853027,-9.704835891723633,0.7815411686897278,0.3804040849208832,-0.4944552481174469,-7.131227016448975,1.2103856801986694,-0.0697231590747833,-0.2204048436127534,-0.3810152622040023,-0.3280240034972769,0.835852395694852,-0.390233185078966,1.0067027233180554,-2.4091498392415795,30990,18.502060406541048,serve,serves_watch-right
2500,1761597294649293056,37.880292892456055,11.806326866149902,-9.633814811706545,-6.093288898468018,0.6951308250427246,0.373627245426178,-0.6141626834869385,-7.43991231918335,1.4553369283676147,-1.1073338985443115,-0.181214835772277,-0.3369834648099712,-0.281710507688854,0.8799104866229053,-0.3829164082375246,0.8471606087631389,-2.561033406212614,31000,16.4112129806673,serve,serves_watch-right
2510,1761597294659339008,37.89033889770508,11.672479629516602,-8.903253555297852,-3.115457773208618,0.6170104742050171,0.3248504102230072,-0.7167777419090271,-6.592825412750244,1.8894439935684204,-1.7375526428222656,-0.155815290482632,-0.298755515516769,-0.2288149331352397,0.9132965064026942,-0.3308535484399246,0.7107372661265262,-2.6798693913967995,31010,15.007357585799369,serve,serves_watch-right
2520,1761597294669384960,37.9003849029541,11.14663791656494,-8.301183700561523,-1.046768307685852,0.5461143255233765,0.2493756115436554,-0.7997317910194397,-4.9940667152404785,2.6730945110321045,-1.080456256866455,-0.1394466405834593,-0.2653998018924921,-0.1723283164320283,0.93830728409723,-0.2520354390341238,0.59913784205255,-2.7683026840273124,31020,13.93746431613179,serve,serves_watch-right
2530,1761597294679430912,37.910430908203125,8.368107795715332,-10.187271118164062,1.6127263307571411,0.4695406854152679,0.1653605699539184,-0.8672873973846436,-3.6009340286254883,3.099135398864746,-0.853797197341919,-0.1366968848287399,-0.228420879566552,-0.1190806432942574,0.9565342070772987,-0.1661236054260181,0.4962087761775051,-2.8155240213019512,31030,13.28181490360443,serve,serves_watch-right
2540,1761597294689476864,37.92047691345215,6.222293853759766,-8.07634449005127,3.6652169227600098,0.3886723518371582,0.0897973328828811,-0.916989803314209,-2.848755359649658,2.98567271232605,-3.087526798248291,-0.1484058588796727,-0.1892536199923583,-0.0754200115228612,0.9677141603937752,-0.0899184552808372,0.4009019539815785,-2.8189681484243945,31040,10.834117232862326,serve,serves_watch-right
2550,1761597294699523072,37.93052291870117,8.243362426757812,-9.287434577941896,2.7135567665100098,0.3129213750362396,0.012484572827816,-0.949696958065033,-1.448388934135437,1.6797609329223633,-0.8090920448303223,-0.1620329612647094,-0.1552801862062882,-0.0322424585226343,0.9739578304795908,-0.0124848974504293,0.3182930201473924,-2.8098775380864134,31050,12.711131163807,serve,serves_watch-right
2560,1761597294709568000,37.94056797027588,13.7794189453125,-10.528133392333984,3.906929492950439,0.2150944918394088,-0.1022000163793563,-0.971230924129486,-0.5578069090843201,2.33079195022583,1.0721678733825684,-0.1706767528293379,-0.1155651892866779,0.0320814945230915,0.9780005157466016,0.1023787708616528,0.217948067495265,-2.807251312138023,31060,17.775772198700707,serve,serves_watch-right
2570,1761597294719613952,37.9506139755249,15.873941421508787,-9.514880180358888,5.418126583099365,0.1069631949067115,-0.2571832239627838,-0.9604247212409972,-0.2913656532764435,4.074932098388672,0.2603057026863098,-0.1853343292515669,-0.0773773600628195,0.1174750135763476,0.9725551636678792,0.2601062448137711,0.110913659575078,-2.7795007061904418,31070,19.2839585347658,serve,serves_watch-right
2580,1761597294729660160,37.960659980773926,15.543594360351562,-7.295705318450928,6.144479751586914,0.0086995223537087,-0.4087644815444946,-0.912598431110382,-0.5899373292922974,3.0959439277648926,0.8018043637275696,-0.2027647763887444,-0.0476866746729704,0.2035356369596962,0.956653393972968,0.4210998549714384,0.0095324060704387,-2.7259075546550284,31080,18.2369206049291,serve,serves_watch-right
2590,1761597294739706112,37.97070598602295,14.433113098144531,-5.813520431518555,7.483673572540283,-0.0823651701211929,-0.5391445159912109,-0.8381761312484741,-2.035478353500366,1.926046371459961,1.173137068748474,-0.2262230342019613,-0.024608128305532,0.283383816509293,0.9316175044554322,0.5694210013515691,-0.097952655372356,-2.636469797802103,31090,17.266069143028844,serve,serves_watch-right
2600,1761597294749752064,37.98075199127197,12.66713523864746,-4.128567695617676,8.866069793701172,-0.1699806749820709,-0.6373216509819031,-0.7516167163848877,-2.6751577854156494,1.3144609928131104,0.3127434253692627,-0.2559129002856728,-0.0057582690459129,0.3523612783196321,0.9001761292785977,0.691017575932977,-0.2224119917361951,-2.5072792866620435,31100,16.00339276398172,serve,serves_watch-right
2610,1761597294759798016,37.99079799652099,10.909427642822266,-2.4671339988708496,9.24155616760254,-0.2553312480449676,-0.7019014358520508,-0.664936363697052,-2.7755982875823975,1.0010194778442385,-0.604716956615448,-0.291332389349454,0.0097791824343159,0.4091896771230735,0.8646349751652951,0.7780635142231982,-0.3666320051105863,-2.3398959868161704,31110,14.508918707516132,serve,serves_watch-right
2620,1761597294769843968,38.00084400177002,9.6150484085083,-0.7777674198150635,9.73164176940918,-0.3341623544692993,-0.7380850315093994,-0.5861451029777527,-2.9134116172790527,0.7868368625640869,-0.5121672749519348,-0.3297809015307738,0.0208204953745438,0.4544160593211001,0.827234656516687,0.8302277012407038,-0.5181453189107018,-2.150345067981059,31120,13.702515447369262,serve,serves_watch-right
2630,1761597294779888896,38.01088881492615,8.343408584594727,0.1235682219266891,10.102374076843262,-0.4106850922107696,-0.7508417963981628,-0.517275869846344,-3.21289587020874,0.3500087261199951,-0.286526620388031,-0.371915174441477,0.0291357527843243,0.4904214302488014,0.7876020453646398,0.8493356596505379,-0.6710338220747127,-1.9464722090296145,31130,13.102888914412494,serve,serves_watch-right
2640,1761597294789933824,38.020933866500854,6.527169704437256,1.381152629852295,9.743638038635254,-0.4817052781581878,-0.7432006597518921,-0.4643413424491882,-3.4517054557800293,0.1792968511581421,-0.9819782376289368,-0.4136269366369625,0.0364778184393119,0.5162351162389617,0.7490550999945568,0.8378415130758095,-0.8037503186819873,-1.7584662949188838,31140,11.808895340607068,serve,serves_watch-right
2650,1761597294799980032,38.03097987174988,3.4168765544891357,2.8779382705688477,9.829195976257324,-0.5440064668655396,-0.7153451442718506,-0.4385640323162079,-3.520538330078125,-0.0909597873687744,-1.2021524906158447,-0.456792982229631,0.043078090303157,0.5280741092497364,0.7145783905883423,0.7971179280582554,-0.8923018721409772,-1.6065180290551049,31150,10.796789690342937,serve,serves_watch-right
2660,1761597294810025984,38.0410258769989,1.3146741390228271,3.771326541900635,9.565433502197266,-0.5966143608093262,-0.6698740720748901,-0.441950261592865,-3.659397602081299,-0.7877980470657349,-1.0373587608337402,-0.5006070183710295,0.0512046263161587,0.5257403808091335,0.6858336093889094,0.734039146249824,-0.9332326840125968,-1.497974362899676,31160,10.365750820004186,serve,serves_watch-right
2670,1761597294820071936,38.051071882247925,0.203175812959671,4.292403221130371,9.34905242919922,-0.6394270062446594,-0.6139519214630127,-0.4628132283687591,-3.683143615722656,-0.8048560619354248,-1.058808445930481,-0.5435687863212848,0.0604733341157092,0.5147196981988094,0.6602572012653064,0.6610575193847452,-0.9442793223455076,-1.4171452427015794,31170,10.28935309665569,serve,serves_watch-right
2680,1761597294830117888,38.06111788749695,-0.1445542573928833,4.4628729820251465,8.789063453674316,-0.671713650226593,-0.5539458990097046,-0.4918788075447082,-3.4817898273468018,-0.8703857660293579,-1.1573827266693115,-0.5844089631194012,0.0693294806442025,0.4992534623393388,0.6359289295551706,0.5870963259288376,-0.9387363522807696,-1.3509342011122634,31180,9.858284210740424,serve,serves_watch-right
2690,1761597294840163840,38.07116389274597,-0.3260129988193512,4.588971138000488,8.4306640625,-0.6938278079032898,-0.4939478933811188,-0.5240405797958374,-3.1983840465545654,-0.7245732545852661,-1.05681574344635,-0.6221962625877654,0.077089419613646,0.4817021090908637,0.6122844290503094,0.516624402350647,-0.9239187609973196,-1.293139778528941,31190,9.604219755687064,serve,serves_watch-right
2700,1761597294850210048,38.081209897994995,-0.6398085951805115,4.8075127601623535,8.11679744720459,-0.7068424224853516,-0.4329347610473633,-0.5594116449356079,-3.108114242553711,-0.6677885055541992,-1.079473853111267,-0.6582564818304545,0.0840303629013456,0.4617716778480785,0.5885612317989154,0.4477459221350727,-0.901306947085522,-1.2396603564944642,31200,9.455365396246602,serve,serves_watch-right
2710,1761597294860256000,38.09125590324402,-0.9269140958786012,5.000184535980225,7.465925693511963,-0.7099438905715942,-0.3727411329746246,-0.5975313186645508,-2.9974076747894287,-0.9379888772964478,-1.1408262252807615,-0.6915184942293908,0.0902665964565624,0.4394158251237896,0.5661871458822119,0.3819612970441198,-0.8711640701146861,-1.1926779921979322,31210,9.03333059264612,serve,serves_watch-right
2720,1761597294870300928,38.101300954818726,-1.1014297008514404,5.305643558502197,7.182957172393799,-0.7032239437103271,-0.3147737085819244,-0.6374900341033936,-2.8974077701568604,-0.9607999920845032,-1.2501137256622314,-0.7225353559000459,0.0950260281115785,0.4150000379153906,0.5446903530578693,0.3202182294630467,-0.8343879426567739,-1.1490275914511692,31220,8.997659400990742,serve,serves_watch-right
2730,1761597294880347136,38.11134696006775,-1.1929855346679688,5.380836009979248,6.433837413787842,-0.6876175999641418,-0.2592419683933258,-0.6782150268554688,-2.8164260387420654,-1.094075322151184,-1.3197555541992188,-0.7510544715816364,0.0988556773753714,0.3887415987186425,0.5244279952497162,0.2622372446345934,-0.7922821721678558,-1.1089060994149549,31230,8.471769267353345,serve,serves_watch-right
2740,1761597294890393088,38.12139296531677,-1.2559391260147097,5.518024444580078,5.951505184173584,-0.6638561487197876,-0.2087680697441101,-0.7181301712989807,-2.7133257389068604,-1.152377009391785,-1.313394546508789,-0.7768025642275797,0.1009712243657647,0.3615794838051339,0.5056114811642665,0.2103150976442468,-0.7461458654477724,-1.0714228785240918,31240,8.212575163521057,serve,serves_watch-right
2750,1761597294900439040,38.13143897056579,-1.3497804403305054,5.651744842529297,5.577848434448242,-0.6331581473350525,-0.1613896489143371,-0.7570100426673889,-2.5725455284118652,-1.1411768198013306,-1.3241972923278809,-0.8002371943566498,0.1023438272188543,0.3331977355306345,0.4879810007372732,0.162098605174299,-0.6965414579083007,-1.0362165951040936,31250,8.05459621333261,serve,serves_watch-right
2760,1761597294910484992,38.14148497581482,-1.3044438362121582,5.7141947746276855,5.12864351272583,-0.596265435218811,-0.1179075241088867,-0.794081449508667,-2.341280460357666,-1.2609224319458008,-1.303330659866333,-0.8215617269435213,0.1026274806021986,0.3040178891441168,0.4712504724619223,0.1181824461620314,-0.6440685361035786,-1.0020956129683027,31260,7.7882334277317975,serve,serves_watch-right
2770,1761597294920530944,38.15153098106384,-1.2334448099136353,5.781301021575928,4.900895118713379,-0.553071141242981,-0.0775319784879684,-0.8295185565948486,-2.174544334411621,-1.2359598875045776,-1.2629497051239014,-0.8409589884206761,0.1020833402409395,0.27353189898201,0.4555735273399725,0.0776098667111057,-0.5880516455667628,-0.9694337317294816,31270,7.678775980962485,serve,serves_watch-right
2780,1761597294930577152,38.161576986312866,-0.951090395450592,5.798038005828857,4.8281731605529785,-0.5066908597946167,-0.0421843342483043,-0.861095130443573,-2.0261459350585938,-1.232840061187744,-1.1980173587799072,-0.858793432923653,0.1001469098418258,0.2437683701018755,0.4393419658223789,0.0421968541778657,-0.5318657822259223,-0.9342426575145804,31280,7.6048059623923585,serve,serves_watch-right
2790,1761597294940622848,38.17162275314331,-0.558673083782196,5.6712727546691895,4.626016616821289,-0.4573882818222046,-0.0125559316948056,-0.889178454875946,-1.967157006263733,-1.2036763429641724,-1.187649488449097,-0.8750591529020051,0.0965769599107286,0.2146710797619146,0.4229191864140328,0.012556261273853,-0.4750965949729576,-0.8973626868409073,31290,7.339991826392073,serve,serves_watch-right
2800,1761597294950667776,38.18166780471802,-0.3114474415779114,5.500284671783447,4.24567174911499,-0.4068841934204101,0.0105155259370803,-0.913419246673584,-1.9287328720092771,-1.0468467473983765,-1.225374698638916,-0.8896625197662018,0.0913222225490613,0.1869508913462275,0.4064607301713588,-0.0105157194460084,-0.4190651683496602,-0.859342076901601,31300,6.955275665331642,serve,serves_watch-right
2810,1761597294960713984,38.19171380996704,-0.3708916008472442,5.521755218505859,4.063912391662598,-0.3550202548503876,0.0294267125427722,-0.9343953728675842,-1.8546812534332275,-0.9852830171585084,-1.2280192375183103,-0.9023732603406056,0.0854968037918189,0.1596640672120519,0.3910502471653211,-0.0294309618544477,-0.363100272802653,-0.8232595441498458,31310,6.8660560149029175,serve,serves_watch-right
2820,1761597294970759936,38.201759815216064,-0.5147060751914978,5.559727191925049,3.927785873413086,-0.3008963167667389,0.0468442812561988,-0.9525056481361388,-1.7968209981918335,-1.170409917831421,-1.0730834007263184,-0.9138166958985106,0.0798309678527725,0.1318111897238546,0.3757551341445437,-0.0468614293440658,-0.3059791694518799,-0.787463535394269,31320,6.826638313244171,serve,serves_watch-right
2830,1761597294980805888,38.21180582046509,-0.5786307454109192,5.478198051452637,3.662832498550415,-0.2454802840948104,0.0626680105924606,-0.9673738479614258,-1.7582275867462158,-1.229507565498352,-0.9686765670776368,-0.9236127530223226,0.0745171797264919,0.1037317031688812,0.361422900479348,-0.0627091007589626,-0.2485138493783476,-0.7538277381491478,31330,6.6152709198423105,serve,serves_watch-right
2840,1761597294990851840,38.22185182571411,-0.5077721476554871,5.360119342803955,3.3934755325317383,-0.190040037035942,0.0757720842957496,-0.9788479804992676,-1.6833425760269165,-1.0747649669647217,-0.9476656913757324,-0.9320204007239916,0.0690612021072751,0.0762007665119926,0.347508424677782,-0.0758447762491825,-0.1917610355568882,-0.721075475210165,31340,6.364305784052753,serve,serves_watch-right
2850,1761597295000897792,38.231897830963135,-0.295909970998764,5.2508087158203125,3.297342300415039,-0.1350702792406082,0.0852849930524826,-0.9871587753295898,-1.5896458625793457,-0.9635656476020812,-0.7708978652954102,-0.9390341595598514,0.0630282488187547,0.0494776961873572,0.3343563480101128,-0.0853887207356831,-0.1359828961588466,-0.6899519029889615,31350,6.207336073323031,serve,serves_watch-right
2860,1761597295010944000,38.24194383621216,-0.0206009894609451,4.966116905212402,3.1869990825653076,-0.0814893841743469,0.0903928354382515,-0.992566704750061,-1.5237810611724854,-0.9135892391204834,-0.6047691106796265,-0.945178237049538,0.055998255352545,0.0241009315206837,0.3208138807756753,-0.0905163905798831,-0.0819159422893437,-0.6581518821810073,31360,5.900822372286366,serve,serves_watch-right
2870,1761597295020989952,38.25198984146118,0.2935774624347687,4.679136753082275,2.9502086639404297,-0.0304931942373514,0.0907749086618423,-0.9954044818878174,-1.4690033197402954,-0.7407840490341187,-0.5405757427215576,-0.9501727850169528,0.0479322558984126,0.0005079935949132,0.3080162905474732,-0.090900039580332,-0.0306243963601806,-0.628352708138689,31370,5.53933566786525,serve,serves_watch-right
2880,1761597295031034880,38.26203489303589,0.6128633618354797,4.366483688354492,2.655925750732422,0.0173290390521287,0.0863369554281234,-0.996115267276764,-1.3991955518722534,-0.5186489820480347,-0.3925108313560486,-0.9541506069254824,0.0386991370339287,-0.0210888805037991,0.2960646942800184,-0.0864445777715552,0.0173948663918726,-0.6009906296855456,31380,5.147399624504563,serve,serves_watch-right
2890,1761597295041080832,38.27208089828491,0.6234393119812012,4.013751983642578,2.3937087059020996,0.0613205544650554,0.0789041593670845,-0.9949944615364076,-1.316127061843872,-0.3950204849243164,-0.2705695033073425,-0.9570610466716668,0.0290761814729502,-0.0407106730072829,0.285536909258263,-0.0789862655357535,0.0615511930307162,-0.5774474627200672,31390,4.7147346617418275,serve,serves_watch-right
2900,1761597295051127040,38.282126903533936,0.4531931281089782,3.798558235168457,2.01379919052124,0.1019208952784538,0.0717258751392364,-0.9922033548355104,-1.2179944515228271,-0.3217258751392364,-0.2019037008285522,-0.9591866440514006,0.0204242655559402,-0.0590013916516351,0.2757944004110019,-0.0717875153172465,0.1023627528753174,-0.556274999346902,31400,4.323171967094913,serve,serves_watch-right
2910,1761597295061172992,38.29217290878296,0.4117442071437835,3.644431352615357,1.654823899269104,0.1402149349451065,0.0653069242835044,-0.9879649877548218,-1.130205154418945,-0.2798760235309601,-0.0907703638076782,-0.96030572010199,0.0126483575425718,-0.0765345347153198,0.2679466539843806,-0.065353436780377,0.1409814558859162,-0.5395875037575794,31410,4.023661928347667,serve,serves_watch-right
2920,1761597295071218944,38.30221891403198,0.5176647305488586,3.455176830291748,1.4012607336044312,0.1763852834701538,0.0583113394677639,-0.982592523097992,-1.0880826711654663,-0.3073195219039917,-0.0056124329566955,-0.9607819147326916,0.0050253039484192,-0.0931584473845431,0.2611405550062434,-0.0583444354271617,0.1776183759473066,-0.5255809617525123,31420,3.7642735481604923,serve,serves_watch-right
2930,1761597295081264896,38.312264919281006,0.6476450562477112,3.163780450820923,1.0297555923461914,0.209643006324768,0.0502652190625667,-0.9764851331710817,-1.0479456186294556,-0.2243527472019195,0.087889552116394,-0.9605935143581108,-0.0027172195415817,-0.1083976412151465,0.2559350276976739,-0.0502864103976292,0.2114812197455141,-0.5154325153497212,31430,3.3895939933636594,serve,serves_watch-right
2940,1761597295091311104,38.32231092453003,0.8915952444076538,2.862490177154541,0.5665836334228516,0.2394586056470871,0.0409652404487133,-0.9700419902801514,-1.000582218170166,-0.0070296972990036,0.1580760478973388,-0.9597931100894448,-0.0107482313481862,-0.121915916974035,0.2526224606209329,-0.0409767073867244,0.242015404305304,-0.5097522016081005,31440,3.0511979791254484,serve,serves_watch-right
2950,1761597295101357056,38.33235692977905,1.0741000175476074,2.63100004196167,0.1700682640075683,0.2662158906459808,0.030412383377552,-0.963433563709259,-0.9246021509170532,0.0883620232343673,0.1806729435920715,-0.9583268232604631,-0.0192761983597608,-0.1338344478876805,0.2516473942671864,-0.0304170743587985,0.2695929296719553,-0.5094602743904033,31450,2.84688870223629,serve,serves_watch-right
2960,1761597295111401984,38.34240198135376,1.0969582796096802,2.537679433822632,-0.1731909066438675,0.2910677790641784,0.0198696982115507,-0.9564960598945618,-0.8550631999969482,0.0948000997304916,0.2162617444992065,-0.9563892304819456,-0.0277959647734185,-0.1448424877062559,0.2521263669937045,-0.019871005377741,0.2954028310296328,-0.5125610361676419,31460,2.7700414195810694,serve,serves_watch-right
2970,1761597295121447936,38.35244798660278,1.0782830715179443,2.498587131500244,-0.489448994398117,0.31510129570961,0.010445300489664,-0.9490005373954772,-0.8342205286026001,0.1417000889778137,0.2779495120048523,-0.9538944082925904,-0.0359749713860048,-0.1555812431423178,0.254137152515578,-0.0104454900940306,0.3205815137860372,-0.5190565165586473,31470,2.7649940965828694,serve,serves_watch-right
2980,1761597295131493888,38.36249375343323,1.0929498672485352,2.4606454372406006,-0.7862792015075684,0.3386420905590057,0.0023016845807433,-0.940912425518036,-0.8439064025878906,0.205996036529541,0.2475836277008056,-0.9508487478677354,-0.0438122840549616,-0.1662054802835863,0.2575709152120986,-0.0023016865023446,0.3454742932742332,-0.5286718878180202,31480,2.804915393172307,serve,serves_watch-right
