t_rel_ms,time,seconds_elapsed,rotationRateX,rotationRateY,rotationRateZ,gravityX,gravityY,gravityZ,accelerationX,accelerationY,accelerationZ,quaternionW,quaternionX,quaternionY,quaternionZ,pitch,roll,yaw,timestamp,omega_mag,label,session_id
0,1761597267796707072,11.02770709991455,0.005145221017301,-0.0200173091143369,0.1239849403500557,-0.1533215194940567,0.7577100992202759,-0.6343247890472412,0.0227978229522705,-0.0016371011734008,0.0111253261566162,-0.0571081061996934,0.1111117164925957,-0.4129065141205712,0.9021646900647842,-0.8597970177912697,-0.237159538083277,-3.124300221764375,4270,0.1256957890985321,serve,serves_watch-right
10,1761597267806753280,11.037753105163574,0.0059605468995869,-0.0160493310540914,0.099089078605175,-0.1507040560245514,0.7590889930725098,-0.6333025693893433,0.022606536746025,-0.0017343163490295,0.0034655928611755,-0.0573203296986009,0.1098549583134068,-0.413860617109389,0.901867823996638,-0.8619125467147577,-0.2336202366562353,-3.1224490943002245,4280,0.10055722075240817,serve,serves_watch-right
20,1761597267816799232,11.047799110412598,0.0171969551593065,-0.0173513498157262,0.0788732916116714,-0.148232027888298,0.7603439092636108,-0.6323800086975098,0.0231252014636993,0.0068832635879516,0.0042519569396972,-0.0575019664712142,0.1086556646414318,-0.4147335734574373,0.901600573634888,-0.8638423941294818,-0.2302465090032393,-3.120712196024853,4290,0.08256997479010549,serve,serves_watch-right
30,1761597267826845184,11.05784511566162,0.0131693594157695,-0.0124763362109661,0.0772252455353736,-0.1461691856384277,0.7617793083190918,-0.6311315298080444,0.0258993804454803,0.0073857307434082,0.0029271841049194,-0.0575835486724335,0.1076558023304633,-0.4157456667926948,0.901249175242502,-0.866055200072587,-0.2275861455746269,-3.119549239174043,4300,0.07932735682391996,serve,serves_watch-right
40,1761597267836891136,11.067891120910645,-0.0044320058077573,-0.008893584832549,0.0780857130885124,-0.144469067454338,0.7632749080657959,-0.6297141909599304,0.0252521634101867,0.0063478946685791,0.0047295093536376,-0.0575692910331964,0.1068206605696544,-0.4168119947856856,0.9008567010935702,-0.8683670308986404,-0.2255175168226965,-3.1188764174504127,4310,0.07871541853534934,serve,serves_watch-right
50,1761597267846937088,11.077937126159668,-0.0221164282411336,0.002254107967019,0.0856755375862121,-0.1428431719541549,0.7645387649536133,-0.6285509467124939,0.0171565413475036,0.0035428404808044,0.0088610053062438,-0.057488468698451,0.1059764336731976,-0.4177242312414121,0.9005389747172361,-0.87032543800726,-0.2234625050566879,-3.1183142750289643,4320,0.0885127964847944,serve,serves_watch-right
60,1761597267856983296,11.087983131408691,-0.0289271958172321,-0.0035348054952919,0.086685411632061,-0.1414684504270553,0.7656124830245972,-0.627554178237915,0.0127147734165191,-0.0005520582199096,0.0139524936676025,-0.0575036265035668,0.1053015963555623,-0.4184907068089016,0.9002613555069451,-0.8719928628698718,-0.2217220241661424,-3.11764966558568,4330,0.09145292831592597,serve,serves_watch-right
70,1761597267867028224,11.098028182983398,-0.031456634402275,-0.0080121448263525,0.092534951865673,-0.1403210312128067,0.7664518356323242,-0.6267868280410767,0.010300874710083,0.0008668899536132,0.0129257440567016,-0.0575190340745993,0.1047347441836925,-0.4190909526981133,0.9000472912071054,-0.8732986565926474,-0.2202420780460646,-3.1170644578502076,4340,0.09806340616876032,serve,serves_watch-right
80,1761597267877074176,11.108074188232422,-0.0392311997711658,-0.0155403679236769,0.0928547978401184,-0.1393341422080993,0.7667495012283325,-0.6266428232192993,0.0106567740440368,-0.008219838142395,0.0092111825942993,-0.0575375655856574,0.1042137004605987,-0.4193066891777492,0.9000060503736319,-0.873762248543522,-0.2187908909915851,-3.1163958165743817,4350,0.10199315443998004,serve,serves_watch-right
90,1761597267887120128,11.118120193481444,-0.036614641547203,-0.0170578360557556,0.0901586189866066,-0.1383190900087356,0.7669265270233154,-0.6266509890556335,0.0097638368606567,-0.0215194821357727,0.004809558391571,-0.0575791890019481,0.1036774283346793,-0.4194347484935765,0.9000055475691816,-0.8740380269009759,-0.2172441059928145,-3.1156111601108756,4360,0.09879361479421278,serve,serves_watch-right
100,1761597267897166336,11.128166198730469,-0.0489996708929538,-0.0290236882865428,0.0817875042557716,-0.1372978836297989,0.7673516869544983,-0.6263550519943237,0.0046379715204238,-0.0267358422279357,0.0087555646896362,-0.0576564733615777,0.1031753183840262,-0.4197348354186852,0.8999184320124365,-0.8747007973028108,-0.2157884123806331,-3.114828710384751,4370,0.09966211959295287,serve,serves_watch-right
110,1761597267907212288,11.138212203979492,-0.0545331872999668,-0.0376813560724258,0.0754617899656295,-0.1362777352333068,0.7678472995758057,-0.6259704232215881,0.0034346878528594,-0.0279943943023681,0.0056549310684204,-0.0577543227295902,0.1026893916923687,-0.4200829269169476,0.8998053983236737,-0.8754740543107429,-0.2143614727910825,-3.114023960146611,4380,0.10044020538293906,serve,serves_watch-right
120,1761597267917258240,11.148258209228516,-0.0504614822566509,-0.0429722592234611,0.0591118372976779,-0.1353989094495773,0.7683860659599304,-0.6254998445510864,0.0108108967542648,-0.0253898501396179,2.682209014892578e-05,-0.0576463921173725,0.1021904599457532,-0.4204844829031167,0.8996815307810268,-0.8763154998717116,-0.213176153285485,-3.1137950866755375,4390,0.0888098280767043,serve,serves_watch-right
130,1761597267927304192,11.15830421447754,-0.0364530235528945,-0.0539042353630065,0.0582923889160156,-0.1349547952413559,0.7688682675361633,-0.6250030398368835,0.0150359570980072,-0.0196464657783508,-0.0019652843475341,-0.0573998672042577,0.1018661238283867,-0.4208583598383322,0.899559226762971,-0.8770692572878298,-0.2126616635604629,-3.114178301390392,4400,0.08736413521436757,serve,serves_watch-right
140,1761597267937350400,11.168350219726562,-0.029435858130455,-0.0640127956867218,0.0489074066281318,-0.1347675621509552,0.7692928314208984,-0.6245207786560059,0.0114002674818038,-0.0159664154052734,-0.0055603981018066,-0.057091593827018,0.1016522211270768,-0.4211964223961467,0.8994447685374763,-0.8777335227356577,-0.2125345350272407,-3.114870944783005,4410,0.08576737245943643,serve,serves_watch-right
150,1761597267947396352,11.178396224975586,-0.034197624772787,-0.0702408254146575,0.043554276227951,-0.1347413063049316,0.7696794271469116,-0.6240499019622803,0.0079865604639053,-0.0156053900718688,-0.0044900774955749,-0.0567480331457483,0.1015088628927558,-0.4215103637763844,0.899335613684062,-0.8783388619467815,-0.2126498985959736,-3.1157498737935865,4420,0.08944398287628624,serve,serves_watch-right
160,1761597267957442304,11.18844223022461,-0.0572901591658592,-0.0720541775226593,0.044931661337614,-0.1347149014472961,0.7700047492980957,-0.6236542463302612,0.0022075772285461,-0.0175328254699707,0.0025910139083862,-0.0570995401975281,0.1016860638100069,-0.4217022882575374,0.8992034498760667,-0.8788486117214814,-0.2127403405322361,-3.115061800789417,4430,0.10243447186506317,serve,serves_watch-right
170,1761597267967488256,11.198488235473633,-0.0759212002158165,-0.0690159425139427,0.0473653450608253,-0.1347164958715438,0.7702592611312866,-0.6233395338058472,-0.0039553791284561,-0.0271867513656616,0.0015591382980346,-0.0574353702185716,0.1018659278244481,-0.4218454319303615,0.8990945278490716,-0.8792475767683929,-0.2128469812647364,-3.1144049543580734,4440,0.11300754344745746,serve,serves_watch-right
180,1761597267977533952,11.208534002304075,-0.0840441063046455,-0.0670420080423355,0.0473967716097831,-0.1347982436418533,0.7706402540206909,-0.6228506565093994,-0.0098398029804229,-0.0310315489768981,0.0001090168952941,-0.0577440107460127,0.1020890223920269,-0.4220811494328894,0.8989387470036785,-0.8798452309988337,-0.2131343995402049,-3.113913332902186,4450,0.1174925385117075,serve,serves_watch-right
190,1761597267987580160,11.2185800075531,-0.0501913353800773,-0.0715451464056968,0.0479475110769271,-0.1348856836557388,0.7708660364151001,-0.6225523948669434,-0.0090962499380111,-0.021812081336975,0.0023283958435058,-0.0580598518745909,0.102305725493484,-0.422205342800128,0.8988355417049908,-0.8801996119871948,-0.2133676254573533,-3.1133557158859992,4460,0.09968370950120203,serve,serves_watch-right
200,1761597267997625088,11.228625059127808,-0.0333183482289314,-0.0899015218019485,0.0456883534789085,-0.1348781585693359,0.7709435224533081,-0.6224580407142639,-0.0076084285974502,-0.0099724531173706,0.0025850534439086,-0.0584500597061874,0.1024914093402201,-0.4222161614132325,0.898784033742931,-0.8803212867303729,-0.2133874465966052,-3.1125089628023015,4470,0.10620650448359671,serve,serves_watch-right
210,1761597268007671040,11.238671064376833,-0.0369068905711174,-0.0869830250740051,0.0316358283162117,-0.1348778903484344,0.7710161209106445,-0.6223681569099426,-0.0032752007246017,0.0022687911987304,-0.0050426721572875,-0.0588558385842546,0.1026881172751894,-0.422221584992078,0.8987324978760587,-0.8804352249748985,-0.2134169071758413,-3.1116312621141873,4480,0.09964432174442384,serve,serves_watch-right
220,1761597268017717248,11.248717069625854,-0.032152883708477,-0.0813935846090316,0.0162603352218866,-0.1350042223930359,0.7710429430007935,-0.622307538986206,0.0051824450492858,0.0077656507492065,0.0024497509002685,-0.0586201550312536,0.1026507787263693,-0.4222665588600005,0.8987310680457539,-0.8804773890083911,-0.2136309746930991,-3.1122605341865226,4490,0.08901192081854292,serve,serves_watch-right
230,1761597268027763200,11.258763074874878,-0.0340599715709686,-0.0749250277876854,0.0152075868099927,-0.1352085173130035,0.771073579788208,-0.622225284576416,0.010498434305191,-0.003007173538208,0.009432315826416,-0.0588746590305404,0.1028879491396511,-0.422257550231684,0.8986915330026343,-0.8805254383384076,-0.2139719161298984,-3.1118591796828476,4500,0.08369654801115803,serve,serves_watch-right
240,1761597268037809152,11.2688090801239,-0.0407104194164276,-0.0820287466049194,0.0093036256730556,-0.135595366358757,0.7711695432662964,-0.6220220327377319,0.0163174271583557,-0.0092219114303588,0.0064214468002319,-0.0584765880189848,0.1029268582947691,-0.4223683930742289,0.8986609160470329,-0.8806762200665085,-0.2146335000384863,-3.11307119600296,4510,0.09204678684940534,serve,serves_watch-right
250,1761597268047855104,11.278855085372925,-0.0649707466363906,-0.0803501531481742,-0.0002320883795619,-0.1362158209085464,0.7712205052375793,-0.6218233108520508,0.0191503912210464,-0.0060532689094543,0.0046968460083007,-0.0585998838984746,0.1033384122537063,-0.4223855180581697,0.8985976358705883,-0.880756234006551,-0.2156523126231214,-3.11328375368654,4520,0.10333150001060197,serve,serves_watch-right
260,1761597268057901056,11.288901090621948,-0.0958748757839202,-0.0718080699443817,0.0023405253887176,-0.1369755566120147,0.7713795900344849,-0.6214589476585388,0.0217106640338897,-0.0123006105422973,0.008406639099121,-0.0580049204456866,0.1035000743686296,-0.4225615308106387,0.8985348770458553,-0.8810061737779895,-0.2169410129585725,-3.1152394493591453,4530,0.11980763237296102,serve,serves_watch-right
270,1761597268067947264,11.298947095870972,-0.1237826719880104,-0.0704610422253608,0.0088346432894468,-0.1375980526208877,0.7718461751937866,-0.6207416653633118,0.024332046508789,-0.0283769369125366,0.0064533948898315,-0.0580651042307331,0.1039190715947289,-0.4228829385549644,0.8983314121759043,-0.8817397540386912,-0.2181399429179721,-3.115745222133011,4540,0.14270584878703194,serve,serves_watch-right
280,1761597268077993216,11.308993101119995,-0.1355232149362564,-0.0653536319732666,0.0055677439086139,-0.1380774080753326,0.7725752592086792,-0.6197275519371033,0.0293280035257339,-0.0392531156539917,-0.0035024881362915,-0.0581489534521586,0.1042915993076894,-0.4233904712830374,0.8980437607719377,-0.8828871845659572,-0.2192227228270432,-3.116187695844708,4550,0.1505610798678989,serve,serves_watch-right
290,1761597268088039168,11.31903910636902,-0.1166403368115425,-0.0679954886436462,-0.0025620879605412,-0.138473093509674,0.7732798457145691,-0.6187596917152405,0.0347743481397628,-0.028437316417694,-0.0031275153160095,-0.0582400953177949,0.1046187584944234,-0.4238809632121269,0.8977683663895616,-0.8839977004371061,-0.2201637689034993,-3.1165446107784516,4560,0.1350367318255142,serve,serves_watch-right
300,1761597268098085120,11.329085111618042,-0.085405983030796,-0.0685867071151733,-0.0103851240128278,-0.1387697458267212,0.7739490866661072,-0.6178557276725769,0.038260132074356,-0.0178761482238769,-0.0023376941680908,-0.0583320080311907,0.1048878006032897,-0.4243473638149312,0.8975105513289483,-0.8850538757589002,-0.2209326844410337,-3.1168139322383537,4570,0.11002803793179713,serve,serves_watch-right
310,1761597268108131072,11.339131116867064,-0.0719761922955513,-0.0711553320288658,-0.016259079799056,-0.1390586644411087,0.774435818195343,-0.6171807050704956,0.0451560616493225,-0.0109623074531555,-0.0024024248123168,-0.0584339705342287,0.1051415550468765,-0.4246821332475118,0.8973159604533429,-0.8858227903909807,-0.2216120846625351,-3.116989018660203,4580,0.10250859090542794,serve,serves_watch-right
320,1761597268118176256,11.349176168441772,-0.0583645142614841,-0.0645482912659645,-0.0239130053669214,-0.1392967104911804,0.7747606635093689,-0.6167190670967102,0.0496055334806442,-0.0015978217124938,-0.00416100025177,-0.0585309441082995,0.1053502824619172,-0.4249020788105648,0.8971810499769318,-0.8863365036337214,-0.2221398596936538,-3.1170769886940186,4590,0.09024815929432124,serve,serves_watch-right
330,1761597268128222208,11.359222173690796,-0.0722476691007614,-0.0483836010098457,-0.0186891257762908,-0.1393589228391647,0.7750774025917053,-0.6163068413734436,0.0524906516075134,-0.0014110803604125,-0.0033373236656188,-0.0586284427061244,0.1054594697510216,-0.4251175000813654,0.8970596723343293,-0.8868375478020267,-0.2223796349519799,-3.117026292898175,4600,0.08893807935555542,serve,serves_watch-right
340,1761597268138268160,11.36926817893982,-0.1008220613002777,-0.0376521274447441,-0.0257451720535755,-0.1392698884010315,0.7755410075187683,-0.6157434582710266,0.0515623986721038,-0.0063302516937255,-0.0051214098930358,-0.0586916147634813,0.1054800696273342,-0.4254435735925914,0.896898484277102,-0.8875715844846271,-0.222438901226964,-3.1169912788220837,4610,0.1106597696998345,serve,serves_watch-right
350,1761597268148314112,11.379314184188845,-0.1008932590484619,-0.0295738615095615,-0.0256939493119716,-0.1391190290451049,0.7758647799491882,-0.6153695583343506,0.0472153723239898,-0.0002453327178955,-0.0109884142875671,-0.0587044718743716,0.1054296094940509,-0.4256757196616922,0.8967934790484215,-0.8880846812004236,-0.2223364222607117,-3.1169682820385383,4620,0.10823235208223522,serve,serves_watch-right
360,1761597268158360320,11.389360189437866,-0.1354813426733017,-0.0016301125288009,-0.0182876996695995,-0.1386862397193908,0.7760717272758484,-0.615206241607666,0.0514365136623382,-0.0183203220367431,-0.0213903784751892,-0.0587267416516048,0.105214165703925,-0.4258249193640942,0.8967464277243747,-0.8884127277397715,-0.221724137938299,-3.1166626060309968,4630,0.13671975511469667,serve,serves_watch-right
370,1761597268168406272,11.39940619468689,-0.1370944529771804,0.0261538811028003,-0.0233991034328937,-0.1379477679729461,0.7765868306159973,-0.6147220730781555,0.0583579540252685,-0.0219329595565795,-0.0345851778984069,-0.0587047103127235,0.1048323281222489,-0.426203179901393,0.8966129016658266,-0.889229956536395,-0.2207496861169642,-3.116334720190874,4640,0.14151477864631312,serve,serves_watch-right
380,1761597268178452224,11.409452199935911,-0.1131558269262313,0.0404710359871387,-0.0132673736661672,-0.1369702816009521,0.7771431803703308,-0.6142375469207764,0.0515973418951034,-0.0108467936515808,-0.0473377704620361,-0.0586847144643493,0.1043200960481973,-0.4266128901504452,0.8964792075541077,-0.8901134693343429,-0.2194027357412112,-3.1158309674935176,4650,0.12090562073464242,serve,serves_watch-right
390,1761597268188498176,11.419498205184937,-0.0800782665610313,0.065275952219963,-0.0069244345650076,-0.1355131268501281,0.7776121497154236,-0.6139670014381409,0.0500029027462005,-0.0107512474060058,-0.0641183257102966,-0.0587466702166064,0.1035684534806875,-0.4269544349488195,0.8963995766618403,-0.8908590434978814,-0.2172343882923308,-3.114737542322095,4660,0.10354432146519456,serve,serves_watch-right
400,1761597268198544384,11.42954421043396,-0.0569495074450969,0.0892547890543937,-8.357223123311996e-05,-0.1338472515344619,0.778016984462738,-0.6138195991516113,0.0467042922973632,0.0039959549903869,-0.0620226860046386,-0.0583804558366131,0.1024893412341087,-0.4273009837545425,0.8963824795292454,-0.8915031652622878,-0.2146956052682624,-3.114410596143709,4670,0.10587573259109613,serve,serves_watch-right
410,1761597268208590336,11.439590215682983,-0.0634669288992881,0.1196794062852859,0.0259220153093338,-0.132035881280899,0.7784136533737183,-0.6137089133262634,0.0352341532707214,0.0142346024513244,-0.055007517337799,-0.0579783315062677,0.101310194892821,-0.4276468138409785,0.8963776155698782,-0.8921348161265952,-0.2119139463896495,-3.114044835255069,4680,0.13792448017086437,serve,serves_watch-right
420,1761597268218636288,11.449636220932009,-0.0752948299050331,0.1515481173992157,0.0476669929921627,-0.1298957020044326,0.7788248658180237,-0.6136441230773926,0.0236945152282714,0.0178517699241638,-0.0500521659851074,-0.05804010027231,0.1001681798407002,-0.4279536057206718,0.8963557142329293,-0.8927901304602937,-0.2085999396500523,-3.112390065169804,4690,0.17580752406705813,serve,serves_watch-right
430,1761597268228682240,11.45968222618103,-0.0526393465697765,0.1617794930934906,0.0571372844278812,-0.1276305764913559,0.7792080044746399,-0.6136327981948853,0.0166381895542144,0.0197879076004028,-0.0549767613410949,-0.058099573196067,0.0989526029082646,-0.4282429046154484,0.8963485352950602,-0.8934012058292076,-0.2050680279620013,-3.1106296391360733,4700,0.17946636025916504,serve,serves_watch-right
440,1761597268238728192,11.469728231430054,-0.0324786864221096,0.1663635969161987,0.0625935718417167,-0.1252766251564026,0.7791929841041565,-0.614136815071106,0.0140705704689025,0.0290345549583435,-0.054930567741394,-0.0581872122520179,0.0976667467164441,-0.4282438376295322,0.8964835266464488,-0.8933772649974085,-0.2012273465860087,-3.1085970183375204,4710,0.18069218767424702,serve,serves_watch-right
450,1761597268248773120,11.479773044586182,-0.0245204642415046,0.197996973991394,0.068187266588211,-0.1229195669293403,0.7790902853012085,-0.614743173122406,0.0110115781426429,0.028099775314331,-0.0514708161354064,-0.0582440137354044,0.0963577540079453,-0.4281863949636244,0.8966489321920369,-0.8932133803557012,-0.197350087314799,-3.1066033987759054,4720,0.21084012474180386,serve,serves_watch-right
460,1761597268258819072,11.489819049835203,-0.0275865606963634,0.2199315726757049,0.0694128572940826,-0.1206397488713264,0.7790451645851135,-0.6152517795562744,0.0116767361760139,0.0197219252586364,-0.052060842514038,-0.0577872693797865,0.0948527430463925,-0.4282255035535509,0.8968202199302334,-0.8931413961525347,-0.1936253619977571,-3.105837019738346,4730,0.23226936894130418,serve,serves_watch-right
470,1761597268268865024,11.499865055084229,-0.0236821323633193,0.2478599101305008,0.0692844986915588,-0.1182983815670013,0.7789976596832275,-0.6157662868499756,-3.35201621055603e-05,0.0116517543792724,-0.0571615695953369,-0.0572563870153555,0.0932783226721745,-0.4282709644629909,0.8969976833606794,-0.8930657065991198,-0.1898031585285043,-3.1051892022110357,4740,0.2584486800161965,serve,serves_watch-right
480,1761597268278911232,11.509911060333252,-0.017386419698596,0.2701042294502258,0.0646700412034988,-0.1158675849437713,0.7789916396141052,-0.6162360310554504,-0.0116043463349342,-0.0008239150047302,-0.0619103908538818,-0.0570574578181578,0.0918163339954012,-0.428312683698191,0.897141303330191,-0.8930560202222853,-0.185854772568141,-3.103746781831681,4750,0.2782818653561496,serve,serves_watch-right
490,1761597268288957184,11.519957065582275,-0.0124836741015315,0.2830734252929687,0.0639334917068481,-0.11345224827528,0.7790313959121704,-0.6166349649429321,-0.020443633198738,-0.0062042474746704,-0.0594819784164428,-0.0567895539873924,0.0903346012300196,-0.4283948762762208,0.8972694413693338,-0.8931194551182675,-0.1819512119923652,-3.102485572974649,4760,0.2904718533489894,serve,serves_watch-right
500,1761597268299003136,11.5300030708313,-0.0025945580564439,0.2788879871368408,0.0627561062574386,-0.1111309677362442,0.7790678143501282,-0.617011547088623,-0.0337664932012558,0.0067750811576843,-0.0591816902160644,-0.0564729846560183,0.0888828422465901,-0.4284787820217981,0.8973943578811778,-0.8931776015485502,-0.178201086978758,-3.1014053282890344,4770,0.2858733460351662,serve,serves_watch-right
510,1761597268309049088,11.540049076080322,-0.0057344250380992,0.2782701253890991,0.0500146597623825,-0.1089312881231308,0.7790516018867493,-0.6174241900444031,-0.0459149181842803,0.0086223483085632,-0.0611951947212219,-0.0558354737881993,0.0873425102739376,-0.4285547742921713,0.897549218449409,-0.8931517376784716,-0.1746314813788563,-3.1011195821494133,4780,0.28278722125606987,serve,serves_watch-right
520,1761597268319095040,11.550095081329346,-0.0224683973938226,0.2678715586662292,0.0381817035377025,-0.1068631634116172,0.779112696647644,-0.6177083253860474,-0.0604952201247215,0.0021067261695861,-0.0511148571968078,-0.0551682465348799,0.0858684458105056,-0.428686871865064,0.8976695096202284,-0.8932491420512235,-0.1713038428656187,-3.1010247911750857,4790,0.27151030055738734,serve,serves_watch-right
530,1761597268329141248,11.56014108657837,-0.0415447875857353,0.2523295283317566,0.0234157182276248,-0.1050171479582786,0.7792766690254211,-0.6178181767463684,-0.0775237455964088,-0.0047252774238586,-0.0356242656707763,-0.0544693979531329,0.0845120428052329,-0.4288923338946462,0.8977428300238885,-0.893510770707416,-0.168371372501981,-3.1012007997019504,4800,0.2567965266583373,serve,serves_watch-right
540,1761597268339187200,11.570187091827393,-0.076660431921482,0.2528634965419769,0.0074103856459259,-0.1033224985003471,0.7795760035514832,-0.61772620677948,-0.0910286754369735,-0.0210311412811279,-0.0265303254127502,-0.0539661342541455,0.0833442877679631,-0.4291743672798907,0.897747564679835,-0.8939885866604561,-0.1657284672803356,-3.101094333170906,4810,0.2643325245240242,serve,serves_watch-right
550,1761597268349233152,11.580233097076416,-0.0678541213274002,0.2428142726421356,-0.0274990405887365,-0.101917564868927,0.7799415588378906,-0.6174981594085693,-0.1031758114695549,-0.0301856994628906,-0.0229742527008056,-0.0533360174241873,0.0822829971578013,-0.4295118508673369,0.8977217360167085,-0.8945724088451906,-0.163574499055277,-3.1015105503907465,4820,0.25361220399094336,serve,serves_watch-right
560,1761597268359279104,11.59027910232544,-0.0210642460733652,0.2196783274412155,-0.0546086877584457,-0.1009193584322929,0.7799950242042542,-0.6175945997238159,-0.118196852505207,-0.0403862595558166,-0.025715947151184,-0.0526018131970489,0.0813762215822078,-0.4296284591003966,0.897791932037929,-0.8946578309485388,-0.1619755668515846,-3.10238727082007,4830,0.22734198641849812,serve,serves_watch-right
570,1761597268369325056,11.600325107574465,0.0168927237391471,0.2043449133634567,-0.0885045975446701,-0.1003557369112968,0.7797142863273621,-0.6180408000946045,-0.1262830644845962,-0.066152274608612,-0.0323498249053955,-0.0517805822755029,0.0806468451445108,-0.4295063361983242,0.8979639218875213,-0.8942093476877844,-0.1609722707118808,-3.1037043702976383,4840,0.2233277222366041,serve,serves_watch-right
580,1761597268379370240,11.61037015914917,0.0541623309254646,0.1675770431756973,-0.1406184136867523,-0.1003428101539611,0.7791872024536133,-0.6187072396278381,-0.1336659789085388,-0.0700502395629882,-0.0264648795127868,-0.0508165723410614,0.0801404850799023,-0.4292130974860162,0.8982045071061536,-0.8933680174783765,-0.1607814960657254,-3.1056995508512393,4850,0.22536450864891672,serve,serves_watch-right
590,1761597268389416192,11.620416164398192,0.0615533664822578,0.1412597298622131,-0.1904148012399673,-0.1009476557374,0.7784897685050964,-0.6194863319396973,-0.1507613360881805,-0.0754563212394714,-0.0215353965759277,-0.0497046774039612,0.0798984068748469,-0.428804250304119,0.898483547171907,-0.8922560866731986,-0.1615340048833393,-3.1084536822545648,4860,0.24495086188315568,serve,serves_watch-right
600,1761597268399462144,11.630462169647217,0.0441315025091171,0.1276352703571319,-0.247614175081253,-0.1021100580692291,0.7777999639511108,-0.6201619505882263,-0.1618822813034057,-0.0953048467636108,-0.0150766372680664,-0.0481299526854151,0.0797498110527694,-0.4284378399506629,0.8987572873767139,-0.8911578177828001,-0.1631864935390398,-3.1126653718693147,4870,0.2820481013125594,serve,serves_watch-right
610,1761597268409508352,11.64050817489624,0.0018252241425216,0.0916193127632141,-0.2901276350021362,-0.1038643345236778,0.7772575616836548,-0.6205505132675171,-0.1807273477315902,-0.1170707941055297,0.0013335943222045,-0.0463736193431983,0.0798579684494911,-0.4281909153764663,0.8989576150267751,-0.890295292327005,-0.1658373083984923,-3.117770731968356,4880,0.3042556071895912,serve,serves_watch-right
620,1761597268419554304,11.650554180145264,-0.0334824323654174,0.0805842354893684,-0.3410091996192932,-0.1061471924185752,0.7769379615783691,-0.6205644607543945,-0.2024618238210678,-0.1322388648986816,0.0015153884887695,-0.0444325674717254,0.0801905674043905,-0.4281205962698607,0.8990595467703079,-0.889787474835574,-0.1694099323073859,-3.123750245575396,4890,0.3519973956032938,serve,serves_watch-right
630,1761597268429600256,11.660600185394289,-0.0133051592856645,0.0714252591133117,-0.3917657732963562,-0.1086812317371368,0.7766637802124023,-0.6204690337181091,-0.2165903747081756,-0.1499090194702148,0.0098427534103393,-0.0423174956962397,0.0805850355994645,-0.4281022590144308,0.8991350459001267,-0.8893521222350099,-0.1734007132544394,-3.1303194514358177,4900,0.39844575042220315,serve,serves_watch-right
640,1761597268439646208,11.67064619064331,0.0195025876164436,0.0387037955224514,-0.4361667931079864,-0.1117525994777679,0.7761671543121338,-0.620544970035553,-0.2283810824155807,-0.1688215732574463,0.0220799446105957,-0.0401019357935815,0.0812196980625711,-0.4279379451528394,0.8992577088896815,-0.8885640245426295,-0.1781780190675225,-3.137453300859885,4910,0.4383147340914811,serve,serves_watch-right
650,1761597268449692160,11.680692195892334,0.093934379518032,-0.0152922272682189,-0.4895301461219787,-0.1154975518584251,0.7752506732940674,-0.6210046410560608,-0.2333336472511291,-0.1587193012237548,0.0244165658950805,-0.0378084723840067,0.0821708442896164,-0.4274875709834955,0.8994848221211281,-0.8871118482740455,-0.183884000827327,3.13804998623135,4920,0.49869558232700073,serve,serves_watch-right
660,1761597268459738368,11.690738201141356,0.1563905775547027,-0.0716955810785293,-0.5709466934204102,-0.1201291307806968,0.7737921476364136,-0.6219443082809448,-0.231265515089035,-0.1491888761520385,0.0277823209762573,-0.0353071364101388,0.0834913289385691,-0.4266814387454627,0.899847502035721,-0.8848060295466024,-0.1908013394758893,3.1294265140130353,4930,0.5963039458378431,serve,serves_watch-right
670,1761597268469784320,11.70078420639038,0.1782744228839874,-0.0955198183655738,-0.6354506015777588,-0.125578299164772,0.7719326019287109,-0.6231775283813477,-0.2256027460098266,-0.1611080169677734,0.0440454483032226,-0.0325939458461897,0.0851524304107496,-0.4256293003354793,0.9002924291825651,-0.881875627793522,-0.1988498317141087,3.1198849957071135,4940,0.6668607595298636,serve,serves_watch-right
680,1761597268479830272,11.710830211639404,0.1621745526790619,-0.11436727643013,-0.7078906893730164,-0.1317343264818191,0.769943356513977,-0.624366283416748,-0.2299294918775558,-0.1880494356155395,0.055671215057373,-0.0298050997261528,0.0871748330359956,-0.4245202042720222,0.9007190169941032,-0.8787523715544622,-0.2079390898850847,3.109738763633826,4950,0.7351800375116996,serve,serves_watch-right
690,1761597268489876224,11.720876216888428,0.1406970471143722,-0.1278166025876999,-0.778709352016449,-0.1385324299335479,0.767899215221405,-0.6254115104675293,-0.2505819797515869,-0.2072760462760925,0.0693659782409668,-0.0266913374356615,0.0894104381185891,-0.4234383157719392,0.901106739850926,-0.8755551117626336,-0.217986355172978,3.0984675419404493,4960,0.8015740751057533,serve,serves_watch-right
700,1761597268499921152,11.730921030044556,0.1093585789203643,-0.1444118320941925,-0.8428617119789124,-0.1460095793008804,0.7658640742301941,-0.6262056231498718,-0.2724627256393432,-0.2223307490348816,0.0800477266311645,-0.0230867120805569,0.0918076964990901,-0.4224553790262706,0.9014265861813924,-0.8723841025297598,-0.2290728262176117,3.085658036488672,4970,0.8621078479820874,serve,serves_watch-right
710,1761597268509967104,11.74096703529358,0.080271691083908,-0.1868838220834732,-0.9214322566986084,-0.1543188244104385,0.7638377547264099,-0.6266878247261047,-0.2866296768188476,-0.2232951521873474,0.072198748588562,-0.0192347982322813,0.094568806040323,-0.4215599784910536,0.9016507453450894,-0.8692386261029328,-0.2414415505141835,3.0717402201812933,4980,0.9436135390246835,serve,serves_watch-right
720,1761597268520013056,11.751013040542604,0.0737373605370521,-0.2163309305906295,-0.9995955228805542,-0.1636688262224197,0.7616387605667114,-0.6269919872283936,-0.2993438839912414,-0.2286797761917114,0.0586936473846435,-0.0148986227071571,0.0976935967934218,-0.4206660953479719,0.9018171287385264,-0.8658383454624649,-0.2553402222310008,3.056116814539461,4990,1.0253913785633404,serve,serves_watch-right
730,1761597268530059008,11.761059045791626,0.0367601737380027,-0.25662562251091,-1.0738682746887207,-0.1742239445447921,0.7592296600341797,-0.6270697116851807,-0.308350533246994,-0.2423686981201172,0.0651037693023681,-0.0101625239875117,0.1013165052858572,-0.4197619511908103,0.9019044849247329,-0.8621286187716171,-0.2710029602453551,3.038886046672906,5000,1.1047176525634457,serve,serves_watch-right
740,1761597268540105216,11.77110505104065,0.0547133386135101,-0.2713736593723297,-1.152174472808838,-0.1860231012105941,0.7565170526504517,-0.6269588470458984,-0.3116270303726196,-0.2444015741348266,0.0888423919677734,-0.0050485135865895,0.105470799381711,-0.4188036551902767,0.9019167982620934,-0.8579707505774042,-0.2884330054976583,3.020132780905966,5010,1.1849654966351084,serve,serves_watch-right
750,1761597268550151168,11.781151056289673,0.0957570150494575,-0.3089613616466522,-1.222893476486206,-0.1983953267335891,0.7533208131790161,-0.6270143389701843,-0.3142694234848022,-0.2519933581352234,0.1173555850982666,0.0002846843559446,0.1098499720307782,-0.4176431695748899,0.9019462362559124,-0.8530970880331852,-0.3064455291913608,3.000826709452031,5020,1.2649486091356654,serve,serves_watch-right
760,1761597268560197120,11.791197061538696,0.1596387922763824,-0.3791111707687378,-1.2831181287765503,-0.2108103185892105,0.74969881772995,-0.6273042559623718,-0.3223927617073059,-0.2515757083892822,0.1376650333404541,0.005606726167184,0.114268436402389,-0.4162818700308036,0.9020092029117308,-0.8476068428254607,-0.3242003241021917,2.9818728176884695,5030,1.347442746908432,serve,serves_watch-right
770,1761597268570243072,11.80124306678772,0.1758417338132858,-0.4177586734294891,-1.3475669622421265,-0.2236562371253967,0.7456192970275879,-0.6277179718017578,-0.3321604132652282,-0.2266678810119629,0.1450214385986328,0.0109458205116599,0.1189353869081857,-0.4147232812163485,0.9020749521458842,-0.8414636850336417,-0.3422767037640109,2.962968162706866,5040,1.4217522084746348,serve,serves_watch-right
780,1761597268580289024,11.811289072036743,0.1774960905313491,-0.4560927450656891,-1.4151254892349243,-0.2370624989271164,0.7411946654319763,-0.6280381083488464,-0.3469066023826599,-0.2018575072288513,0.1459824442863464,0.0165389032146806,0.1238241413808954,-0.4130962773682365,0.9020784617243498,-0.8348482885908687,-0.3609301536517767,2.9434518637066076,5050,1.4973662225847932,serve,serves_watch-right
790,1761597268590335232,11.821335077285768,0.1457591950893402,-0.469163566827774,-1.4543883800506592,-0.250909686088562,0.7365384101867676,-0.6281365752220154,-0.3707639276981354,-0.19370698928833,0.1473779082298278,0.0222796961011808,0.1289241961971224,-0.4114732836245975,0.9019822569056016,-0.8279383085805114,-0.3800328613620372,2.923592111601951,5060,1.5351240195560854,serve,serves_watch-right
800,1761597268600381184,11.83138108253479,0.1021235659718513,-0.474739134311676,-1.5204954147338867,-0.2650783658027649,0.7318413257598877,-0.6278070211410522,-0.3825198709964752,-0.2065575718879699,0.145751416683197,0.0283150194031254,0.1341097456348183,-0.4100134795187097,0.9017215379998046,-0.821020023051892,-0.3995212874413156,2.9030279519374376,5070,1.596155623553224,serve,serves_watch-right
810,1761597268610427136,11.841427087783812,0.0790365561842918,-0.5069276094436646,-1.5687474012374878,-0.2796852588653564,0.7269658446311951,-0.627133846282959,-0.3878562450408935,-0.21649831533432,0.1338171958923339,0.0345864484391022,0.1394732575077328,-0.4086322008898748,0.9013161264720504,-0.8138928821987114,-0.4195006825568531,2.8818899541368332,5080,1.6505122802691026,serve,serves_watch-right
820,1761597268620472320,11.85147213935852,0.018859501928091,-0.5508610010147095,-1.624528408050537,-0.2947952151298523,0.7219796180725098,-0.6259722113609314,-0.3901565670967102,-0.2235817909240722,0.1134447455406189,0.0410662473013647,0.1450698017120368,-0.4073924922077257,0.9007217489826924,-0.8066591292860316,-0.4401303435114225,2.86014146915001,5090,1.715487123768382,serve,serves_watch-right
830,1761597268630518272,11.861518144607544,-0.0097359577193856,-0.5702083110809326,-1.6920844316482544,-0.3104909360408783,0.7168415784835815,-0.6242864727973938,-0.3947245478630066,-0.1929157972335815,0.1175268292427063,0.0477985084008819,0.1509299412280236,-0.4062965835259038,0.8999214685235416,-0.7992617963890746,-0.4615279953452548,2.837646321864347,5100,1.7856041080611569,serve,serves_watch-right
840,1761597268640564224,11.871564149856567,-0.0596696957945823,-0.5751631259918213,-1.7345576286315918,-0.3265406489372253,0.7114824652671814,-0.6222250461578369,-0.3991826474666595,-0.1959947943687439,0.1323721408843994,0.0547497325806322,0.1569393409846504,-0.4052869544345548,0.8989522344383383,-0.7916056032897992,-0.4832863444377432,2.8146907405053807,5110,1.8284045671406952,serve,serves_watch-right
850,1761597268650610176,11.88161015510559,-0.055186029523611,-0.5582565665245056,-1.7674963474273682,-0.3427264392375946,0.7059310078620911,-0.6198385953903198,-0.4059917628765106,-0.2122176885604858,0.1448325514793396,0.0618654898972391,0.1630014546671133,-0.4043652016309856,0.8978261835079475,-0.7837367395769799,-0.5050888144155231,2.791524461476841,5120,1.8543837871625708,serve,serves_watch-right
860,1761597268660656128,11.891656160354614,-0.0142591036856174,-0.5500108599662781,-1.7742611169815063,-0.3588293492794037,0.6998344659805298,-0.6176352500915527,-0.4143945276737213,-0.1952263116836547,0.1581625938415527,0.0690188851490351,0.1690474473543604,-0.4032435241698313,0.8966906177231417,-0.7751656881682176,-0.5263115104172224,2.7688764198441973,5130,1.8576107717579655,serve,serves_watch-right
870,1761597268670702336,11.901702165603638,0.0344519093632698,-0.5564554333686829,-1.7892926931381226,-0.3748632967472076,0.6931501626968384,-0.6156463027000427,-0.4292901754379272,-0.1654249429702758,0.1501922607421875,0.076141396200337,0.1751216883483805,-0.4018821151088452,0.8955588427912194,-0.7658503064189103,-0.5469334750656544,2.7469419200290885,5140,1.8741392491225883,serve,serves_watch-right
880,1761597268680748288,11.91174817085266,0.0908877551555633,-0.5420879125595093,-1.7928285598754885,-0.3908361196517944,0.6857873797416687,-0.6139567494392395,-0.4472070932388305,-0.1168481707572937,0.1262248158454895,0.0832990067646638,0.1812054032291416,-0.4002327267984994,0.8944494026519945,-0.7556850175135522,-0.5668872937699035,2.725662073254978,5150,1.8751944256757915,serve,serves_watch-right
890,1761597268690794240,11.921794176101685,0.053255058825016,-0.5065622329711914,-1.7832505702972412,-0.4064584076404571,0.6780589818954468,-0.6123950481414795,-0.4471640288829803,-0.1353648900985717,0.1061694622039794,0.0904519563946556,0.1871530120053635,-0.3984673574535955,0.8933174489462065,-0.7451185826163929,-0.5859593487989313,2.705071694096972,5160,1.85456841168738,serve,serves_watch-right
900,1761597268700840192,11.931840181350708,-0.0557606406509876,-0.4658795595169067,-1.7861459255218506,-0.421689361333847,0.6705589294433594,-0.6103513836860657,-0.4353815615177154,-0.1789665222167968,0.0947874188423156,0.0978318462154523,0.1928342241889303,-0.3970381352004593,0.8919667212004126,-0.7349619802867298,-0.6045897889867938,2.684141079724611,5170,1.8467458623968225,serve,serves_watch-right
910,1761597268710886144,11.941886186599731,-0.1276966482400894,-0.3810919523239136,-1.806706786155701,-0.4364694952964782,0.6633496284484863,-0.6078335642814636,-0.4254842400550842,-0.1946759223937988,0.0949704647064209,0.1054731632871228,0.1981933739557139,-0.3959830777845607,0.8903887618841798,-0.7252861525435953,-0.6227534463058613,2.66274797008831,5180,1.8508719353966299,serve,serves_watch-right
920,1761597268720932352,11.951932191848757,-0.1542643457651138,-0.3367319405078888,-1.785259246826172,-0.4507040679454803,0.6561141014099121,-0.6052933931350708,-0.4083199799060821,-0.2302260398864746,0.1207963228225708,0.113355032010927,0.2031836236476508,-0.395056595878211,0.888705410348798,-0.7156579601038429,-0.6400389154838324,2.6412718244486766,5190,1.8232763001012486,serve,serves_watch-right
930,1761597268730977024,11.961977005004885,-0.14595428109169,-0.3387399017810821,-1.7795816659927368,-0.4645710289478302,0.6487627029418945,-0.6027277112007141,-0.3936595618724823,-0.248997688293457,0.1321771740913391,0.121178449184274,0.2080422250789965,-0.3941504519889711,0.8869495966322376,-0.7059574014231723,-0.6566687827378,2.620324661031181,5200,1.8174042696013273,serve,serves_watch-right
940,1761597268741022976,11.972023010253906,-0.1102474182844162,-0.3392150104045868,-1.7862541675567627,-0.4783233404159546,0.6410154700279236,-0.6002548933029175,-0.3857360780239105,-0.202065885066986,0.1143692731857299,0.1289329459194287,0.2129307497355072,-0.3931069152319588,0.8851574743447853,-0.695820576642639,-0.6728276900456666,2.6000010709602637,5210,1.8215172981984185,serve,serves_watch-right
950,1761597268751069184,11.98206901550293,-0.0584983676671981,-0.344735324382782,-1.8002936840057373,-0.4919830560684204,0.6327091455459595,-0.5980232954025269,-0.3744415044784546,-0.1673923730850219,0.1207283735275268,0.1366045974188678,0.2178781666236239,-0.3918130389980313,0.8833747274681037,-0.6850466721260833,-0.6884192829682009,2.580470490095814,5220,1.8339361634386235,serve,serves_watch-right
960,1761597268761115136,11.992115020751951,0.0131087051704525,-0.3688875138759613,-1.8233166933059692,-0.5056943297386169,0.6236277222633362,-0.596122145652771,-0.3554658889770508,-0.1551371812820434,0.1262583136558532,0.1442196697334945,0.2229736239901127,-0.3901559810597664,0.881624451620553,-0.6733748688067569,-0.7035101166941908,2.561772814919401,5230,1.8603047062599845,serve,serves_watch-right
970,1761597268771161088,12.002161026000977,0.054449550807476,-0.395560473203659,-1.8580799102783203,-0.51957106590271,0.6138452291488647,-0.5943399667739868,-0.35469651222229,-0.1317132711410522,0.1236215829849243,0.1517624735778431,0.2282992060430709,-0.3882131896631524,0.879851229591786,-0.6609222989265662,-0.7183758150212524,2.54378490297422,5240,1.900498301636739,serve,serves_watch-right
980,1761597268781207040,12.01220703125,0.0393014922738075,-0.3991024792194366,-1.862046480178833,-0.5335270762443542,0.6035730838775635,-0.5924932956695557,-0.3536493182182312,-0.1200831532478332,0.1101019978523254,0.1593437329851742,0.233754689258656,-0.3861503663464893,0.8779841126278412,-0.6479749844123551,-0.7330790576278559,2.5261040628452984,5250,1.9047426310555529,serve,serves_watch-right
990,1761597268791252992,12.022253036499023,-0.0109127750620245,-0.3481888771057129,-1.867107391357422,-0.5471130013465881,0.5932353138923645,-0.5905413627624512,-0.3455718755722046,-0.1438030004501342,0.0918536782264709,0.1669878105987998,0.2390450191113254,-0.3841702666537912,0.8760054943414558,-0.6350718036970164,-0.7472430867229234,2.508585537212479,5260,1.8993274055994689,serve,serves_watch-right
1000,1761597268801299200,12.032299041748049,-0.0603559613227844,-0.3448759019374847,-1.8777952194213867,-0.5604135990142822,0.582897961139679,-0.5883592367172241,-0.3535115718841553,-0.1375396847724914,0.0925554037094116,0.1748682146733588,0.2441405526154244,-0.3823817046938034,0.8738425491645044,-0.6222906706885984,-0.7610764566985309,2.490691306752797,5270,1.910156306663464,serve,serves_watch-right
1010,1761597268811345152,12.04234504699707,-0.0467205382883548,-0.308836966753006,-1.8764541149139404,-0.5734322667121887,0.5723901391029358,-0.5861270427703857,-0.3597952127456665,-0.1065240502357482,0.0922916531562805,0.1827897924248018,0.2491382606758561,-0.3806134534111735,0.8715797742587162,-0.6094177387023545,-0.7744506431827813,2.4730144337379567,5280,1.9022731470818302,serve,serves_watch-right
1020,1761597268821391104,12.052391052246094,-0.0121039738878607,-0.3107006549835205,-1.8803598880767824,-0.5861247777938843,0.5614567399024963,-0.584143877029419,-0.3318439126014709,-0.1030216813087463,0.0907204747200012,0.1907170155139579,0.2540453976037894,-0.3786673857627776,0.8693094491807877,-0.5961451161392788,-0.7870908182947157,2.455904453415762,5290,1.905894727386378,serve,serves_watch-right
1030,1761597268831436032,12.0624361038208,0.0550179407000541,-0.342274397611618,-1.8853801488876345,-0.5987606048583984,0.5499501824378967,-0.5822718739509583,-0.321969985961914,-0.0667348504066467,0.0781520009040832,0.1985142752731882,0.2590995713119078,-0.3764724148942482,0.867022482806826,-0.5823045723571082,-0.7993585478206853,2.439600640546952,5300,1.9169864482773031,serve,serves_watch-right
1040,1761597268841482240,12.072482109069824,0.0888856276869773,-0.3581092953681946,-1.881129503250122,-0.6113357543945312,0.5378626585006714,-0.5804932117462158,-0.3214035034179687,-0.0161646604537963,0.0585510730743408,0.2061670758930678,0.2643131054377609,-0.3740213598865722,0.8647206087239024,-0.5678997245179563,-0.8112707242849814,2.424132217579765,5310,1.9169744730268226,serve,serves_watch-right
1050,1761597268851528192,12.082528114318848,0.0896133333444595,-0.3744471371173858,-1.843350172042847,-0.6236652731895447,0.5255095958709717,-0.5786893963813782,-0.3223338723182678,0.0001251697540283,0.0588834881782531,0.2136292076967408,0.2695749561999732,-0.3714628464623468,0.8623847064105115,-0.5533139614067284,-0.8227872253554875,2.409428586211516,5320,1.8831306552597207,serve,serves_watch-right
1060,1761597268861574144,12.092574119567873,0.0313345789909362,-0.3720790445804596,-1.860054850578308,-0.6357621550559998,0.5131600499153137,-0.5766048431396484,-0.3322706222534179,0.0015493631362915,0.0397549271583557,0.221102608352238,0.2747844343641539,-0.3690407861283642,0.8598929764183637,-0.5388625396668256,-0.8341544083994036,2.3947458008381597,5330,1.897163334670038,serve,serves_watch-right
1070,1761597268871620096,12.102620124816896,-0.0302469581365585,-0.3171945512294769,-1.8302258253097536,-0.6476723551750183,0.500778317451477,-0.5742313861846924,-0.3408988118171692,-0.0170289278030395,0.0342228412628173,0.228690712180521,0.2799274669282597,-0.3667763933276659,0.8572143046744501,-0.524497733696048,-0.8454296863634568,2.379835132963631,5340,1.85775505205529,serve,serves_watch-right
1080,1761597268881666304,12.112666130065918,-0.1308625191450119,-0.1870554685592651,-1.8373068571090696,-0.6588293313980103,0.4885834455490112,-0.572040319442749,-0.3348230123519897,-0.0868805646896362,0.0154454708099365,0.2365689653956783,0.2845611936916933,-0.364698196166708,0.8544327163332552,-0.5104654883937995,-0.8557919942199829,2.364491879813547,5350,1.8514349122815286,serve,serves_watch-right
1090,1761597268891712256,12.12271213531494,-0.1140075027942657,-0.135396122932434,-1.8962165117263792,-0.6700937747955322,0.4753988981246948,-0.5700616240501404,-0.3263356685638428,-0.1020926535129547,0.0126122832298278,0.2450098201319389,0.2892162196314505,-0.3623853730322441,0.8514699720035583,-0.4954173887915486,-0.8658848993324719,2.3485121111725173,5360,1.9044597344502394,serve,serves_watch-right
1100,1761597268901758208,12.132758140563965,-0.0287152417004108,-0.1567853093147277,-1.8873350620269775,-0.6809948682785034,0.4616437256336212,-0.568446159362793,-0.3385668396949768,-0.0405621826648712,0.0117903351783752,0.2534183698266019,0.293829146526691,-0.359779599259817,0.8485293857587763,-0.4798472910521701,-0.8752349475504068,2.3332207940395016,5370,1.8940538098689812,serve,serves_watch-right
1110,1761597268911804160,12.142804145812988,0.05990906432271,-0.195460170507431,-1.9303685426712036,-0.691387414932251,0.4475860595703125,-0.567142128944397,-0.3030736446380615,-0.027191162109375,-0.0226253271102905,0.2614407412001203,0.2984373487383102,-0.3568810622500029,0.8457066965668583,-0.4640640637209385,-0.8838019092937391,2.319299709506618,5380,1.941163693452297,serve,serves_watch-right
1120,1761597268921850112,12.152850151062012,0.0989858955144882,-0.2341886609792709,-1.979579210281372,-0.7016358375549316,0.4330071210861206,-0.5658726692199707,-0.2730039954185486,-0.0004662573337554,-0.012267529964447,0.2694152533770447,0.303151468099318,-0.353783606634089,0.8428236599221967,-0.4478262145339701,-0.8921016047391593,2.3058624823489344,5390,1.9958397696759853,serve,serves_watch-right
1130,1761597268931895296,12.16289520263672,0.132643461227417,-0.225718468427658,-2.018995761871338,-0.7117079496383667,0.4178678691387176,-0.5646752715110779,-0.2790756821632385,0.0131013393402099,-0.0033483505249023,0.277394309437719,0.3079434951866984,-0.3504756302211237,0.8398749740270823,-0.4310972074261453,-0.9000874253469101,2.2928219067243134,5400,2.035899555786125,serve,serves_watch-right
1140,1761597268941941248,12.172941207885742,0.1339300274848938,-0.2269600331783294,-2.0983450412750244,-0.721630334854126,0.4020625948905945,-0.5635560750961304,-0.287189245223999,-0.0058833956718444,-0.0050169229507446,0.2855923144887149,0.3127652357303375,-0.3469868476449122,0.8367886127630947,-0.413768425146809,-0.907780633683463,2.2797130692349463,5410,2.1148286032598236,serve,serves_watch-right
1150,1761597268951987200,12.182987213134766,0.1309500634670257,-0.1954075396060943,-2.1202352046966553,-0.7313289046287537,0.385721892118454,-0.5624736547470093,-0.310129165649414,0.0022785663604736,-0.0030017495155334,0.2939256833471714,0.317600699791109,-0.3433554457989922,0.8335733464616379,-0.3959901342306635,-0.9151754809145268,2.266643602591513,5420,2.1332438559367732,serve,serves_watch-right
1160,1761597268962033152,12.193033218383787,0.1515749096870422,-0.1623329520225525,-2.207413673400879,-0.7406370043754578,0.3687911927700043,-0.5616493225097656,-0.3277834057807922,0.0016616582870483,0.0069313049316406,0.3024913622752903,0.3223268570107239,-0.3395301512601433,0.8302552401035029,-0.3777082116194435,-0.9219835068349987,2.2535191396420577,5430,2.218558555926833,serve,serves_watch-right
1170,1761597268972079360,12.203079223632812,0.2001302540302276,-0.1220593601465225,-2.2490875720977783,-0.7495730519294739,0.3509414196014404,-0.5612311363220215,-0.3542477488517761,0.0206558406352996,-0.0001702308654785,0.3112903573489911,0.327020595201739,-0.3353236704783754,0.826869959873636,-0.3585762825110038,-0.928105698567768,2.240555297025487,5440,2.2612707739106037,serve,serves_watch-right
1180,1761597268982125312,12.213125228881836,0.2612340748310089,-0.138271078467369,-2.263549566268921,-0.7581262588500977,0.33244588971138,-0.5610030293464661,-0.3863592743873596,0.0683414340019226,0.0023329854011535,0.3201081488081009,0.3317373977206887,-0.3308304485081266,0.8234272009759487,-0.3388957920778048,-0.933734853109788,2.2280074139990695,5450,2.282765597241548,serve,serves_watch-right
1190,1761597268992171264,12.22317123413086,0.3170934617519378,-0.1212149709463119,-2.2997817993164062,-0.7663267850875854,0.3132751882076263,-0.5608938336372375,-0.4064332246780395,0.1161071360111236,-0.0238381624221801,0.328811903185329,0.3365677229717759,-0.3259988418175179,0.8199570896458637,-0.3186398590158408,-0.9389638311206268,2.2161645536948704,5460,2.3247016275501573,serve,serves_watch-right
1200,1761597269002217216,12.233217239379885,0.3293671607971191,-0.0933796092867851,-2.333930492401123,-0.7740209102630615,0.293421596288681,-0.5610663294792175,-0.4079554080963135,0.1381884813308715,-0.0580437779426574,0.3376985210161631,0.3413147733020218,-0.3208910626333708,0.8163901083911742,-0.297804014292011,-0.9435718392565576,2.204380175446065,5470,2.358905259098351,serve,serves_watch-right
1210,1761597269012263168,12.243263006210327,0.3419147729873657,-0.0901309549808502,-2.335916757583618,-0.7812362909317017,0.2731873095035553,-0.5612830519676208,-0.4164718389511108,0.1519225537776947,-0.0627556443214416,0.3465643578362951,0.3460355166219362,-0.3156230395162682,0.8127328956906086,-0.2767048171089104,-0.947791605584578,2.192863843765923,5480,2.362527544684448,serve,serves_watch-right
1220,1761597269022309120,12.25330901145935,0.3497958779335022,-0.1063876822590828,-2.346619129180908,-0.7880125045776367,0.2527329623699188,-0.561393141746521,-0.4135560393333435,0.1661512851715088,-0.0680928826332092,0.355356226092212,0.3507518160816261,-0.3102847080470287,0.808961329933323,-0.2555038945427498,-0.9517856519384078,2.1815792089405175,5490,2.374930911120046,serve,serves_watch-right
1230,1761597269032354048,12.263354063034058,0.353604793548584,-0.1335221379995346,-2.371166944503784,-0.7944673895835876,0.2319294214248657,-0.5612757205963135,-0.3988919854164123,0.1786693334579467,-0.064746618270874,0.3640823925383899,0.3555636289868997,-0.3048551352768798,0.8050353669802226,-0.2340607182120268,-0.9557342607695326,2.170508188817687,5500,2.401103327652501,serve,serves_watch-right
1240,1761597269042400000,12.27340006828308,0.3772635161876678,-0.1205773055553436,-2.384592056274414,-0.8004958033561707,0.2107469290494918,-0.5610634684562683,-0.393061876296997,0.2061994522809982,-0.0774100422859191,0.372824988868889,0.3603899408700945,-0.2993114637211986,0.800957768531091,-0.212338990724602,-0.9594699854444352,2.159520121598527,5510,2.417260003000982,serve,serves_watch-right
1250,1761597269052446208,12.283446073532104,0.4079355299472809,-0.1185571700334549,-2.3961188793182373,-0.8060001134872437,0.1891842633485794,-0.5608682632446289,-0.3860775232315063,0.2229708880186081,-0.0851736068725586,0.3814754710602646,0.3652210967024379,-0.2935633271368409,0.7968128282702935,-0.1903313483981658,-0.9628501149578612,2.1489306556502306,5520,2.4334857474382288,serve,serves_watch-right
1260,1761597269062492160,12.293492078781128,0.4443649053573608,-0.115122489631176,-2.3772544860839844,-0.8109599947929382,0.16731758415699,-0.5606681108474731,-0.4059894680976867,0.2632396817207336,-0.0933693647384643,0.3900144216741472,0.3700432794528243,-0.2876350484307151,0.7926050981563185,-0.1681082630443426,-0.9658902634953268,2.1387312953593285,5530,2.4211675382630102,serve,serves_watch-right
1270,1761597269072538112,12.303538084030151,0.4150427281856537,-0.1098406761884689,-2.365593433380127,-0.8153353929519653,0.1454622447490692,-0.5604185461997986,-0.4202297925949096,0.2856901288032532,-0.1229310035705566,0.3983481176135447,0.3747979926678472,-0.2816330565239492,0.7883705083546522,-0.1459801679822638,-0.9686126687574516,2.128968303741393,5540,2.404237453417717,serve,serves_watch-right
1280,1761597269082584064,12.313584089279177,0.3545498251914978,-0.0873867645859718,-2.3643505573272705,-0.8191277980804443,0.1238589510321617,-0.5600790977478027,-0.4276525974273681,0.3084988296031952,-0.1435952186584472,0.4067868265331426,0.3793166319012199,-0.2758248193640721,0.7839413561320813,-0.1241778419181283,-0.9710594495280545,2.118702835981298,5550,2.3923828253651003,serve,serves_watch-right
1290,1761597269092630272,12.323630094528198,0.3316537737846374,-0.000392940826714,-2.345475196838379,-0.8220645189285278,0.1024941504001617,-0.5600935816764832,-0.4251888990402221,0.3136740624904632,-0.154597520828247,0.415231583221005,0.3834676281571572,-0.270010699012005,0.7795059451132506,-0.1026744542368295,-0.9727137799016592,2.1083666847838485,5560,2.3688073537229903,serve,serves_watch-right
1300,1761597269102676224,12.333676099777222,0.3506455719470978,0.0288701392710208,-2.372333526611328,-0.824164867401123,0.0810884535312652,-0.5605149269104004,-0.4076313972473144,0.2783780992031097,-0.1510481834411621,0.4237607870602597,0.3873062239167734,-0.2640765319021622,0.7750382680260393,-0.081177583231011,-0.9735509299828048,2.097905918159566,5570,2.39828108518409,serve,serves_watch-right
1310,1761597269112722176,12.343722105026243,0.4397677481174469,0.018631050363183,-2.4073486328125,-0.8257651925086975,0.0590495765209198,-0.5609145164489746,-0.411249577999115,0.3212146759033203,-0.1616349220275879,0.432199640095456,0.3912614990581106,-0.257792920236681,0.7704938813607889,-0.0590839474008028,-0.9741215250499332,2.087889352685814,5580,2.447257695508615,serve,serves_watch-right
1320,1761597269122767104,12.353767156600952,0.5277971625328064,0.0692542791366577,-2.4238109588623047,-0.8266947865486145,0.0362077839672565,-0.5614843368530273,-0.3888508677482605,0.3565076887607574,-0.1899499893188476,0.4405008970022144,0.3953091477745569,-0.2509750946043103,0.7659641571915916,-0.0362157013480817,-0.9741724964183238,2.078600538173678,5590,2.481577233184054,serve,serves_watch-right
1330,1761597269132813312,12.363813161849976,0.5751615762710571,0.0911307856440544,-2.430253744125366,-0.8268499970436096,0.0129078552126884,-0.5622742772102356,-0.3481987118721008,0.3355113267898559,-0.2023436427116394,0.4485851955063886,0.3993346661736274,-0.2437102710034726,0.761517133936057,-0.0129082140371361,-0.9736062360164168,2.070075699805676,5600,2.499049603298436,serve,serves_watch-right
1340,1761597269142859264,12.373859167099,0.663335382938385,0.1325424015522003,-2.4351210594177246,-0.8262634873390198,-0.0108347414061427,-0.5631794929504395,-0.3492277860641479,0.3609324097633362,-0.2252115607261657,0.4566722991033864,0.4032963626624284,-0.2361404265128335,0.7569940861297072,0.010834953577298,-0.9725278119555538,2.061678131131981,5610,2.527329794958889,serve,serves_watch-right
1350,1761597269152905216,12.383905172348022,0.732968270778656,0.245402917265892,-2.4404404163360596,-0.8246261477470398,-0.0350112915039062,-0.5645935535430908,-0.3611953258514404,0.3640975952148437,-0.2520872950553894,0.4645458462239998,0.4070870478875114,-0.2279986049088644,0.7526579021739236,0.035018447656549,-0.9704359106711452,2.054106197435906,5620,2.5599247065992747,serve,serves_watch-right
1360,1761597269162951168,12.393951177597046,0.852753221988678,0.2953901588916778,-2.4803614616394043,-0.8219106793403625,-0.0599263869225978,-0.5664552450180054,-0.3737832307815552,0.3682454824447632,-0.2565274834632873,0.4723612098949849,0.4107521451831025,-0.2192145947967692,0.7483999294304461,0.059962311723835,-0.967360121024852,2.047061911647639,5630,2.6394386494040893,serve,serves_watch-right
1370,1761597269172997120,12.40399718284607,0.8939434289932251,0.3437008559703827,-2.4942095279693604,-0.8182933926582336,-0.0854263603687286,-0.5684172511100769,-0.3915148973464966,0.4191818833351135,-0.2784150242805481,0.4799769765353921,0.4144146424389005,-0.2098854192898953,0.7441979812195642,0.0855306084164733,-0.963678483200646,2.0406945208288447,5640,2.6717683848058535,serve,serves_watch-right
1380,1761597269183043328,12.414043188095093,0.943495512008667,0.4274375736713409,-2.492330551147461,-0.8136363625526428,-0.1111899614334106,-0.570642352104187,-0.3985981345176697,0.4531089067459106,-0.3033963441848755,0.4875925112934943,0.4178496791687736,-0.2002010989637067,0.7399829143914101,0.1114203583456673,-0.959166156993792,2.034337773942729,5650,2.6989994880973107,serve,serves_watch-right
1390,1761597269193089280,12.424089193344116,0.9414666295051576,0.52025306224823,-2.4790022373199463,-0.8077987432479858,-0.1368356794118881,-0.5733560919761658,-0.4217239618301391,0.4466196000576019,-0.3193135261535644,0.4950501296170282,0.4209025318682483,-0.1901657246109067,0.735937110453439,0.1372663353563669,-0.9535394035377508,2.0282658874592707,5660,2.7023091525374667,serve,serves_watch-right
1400,1761597269203135232,12.43413519859314,0.9823243021965028,0.5146769285202026,-2.482410430908203,-0.8010703325271606,-0.1624823808670044,-0.5760951638221741,-0.4437263607978821,0.4606696367263794,-0.3265231251716614,0.5024615857333269,0.4237631964265682,-0.1799365490595064,0.7318331941980636,0.1632059425454596,-0.9473288251692638,2.0220626360308622,5670,2.7188627995760815,serve,serves_watch-right
1410,1761597269213180160,12.444180011749268,0.9487264156341552,0.5669082403182983,-2.4348433017730713,-0.7936455607414246,-0.1878271698951721,-0.5786601901054382,-0.4418737888336181,0.4762488603591919,-0.3270710110664367,0.5095828567674612,0.4265062066707202,-0.1695947336640236,0.7277741813172193,0.1889494695000945,-0.9407950888852514,2.0161675293265477,5680,2.6739350532225,serve,serves_watch-right
1420,1761597269223226112,12.454226016998293,0.9177972674369812,0.6202564239501953,-2.438225507736206,-0.7852662205696106,-0.2125637680292129,-0.5815269947052002,-0.3918883204460144,0.4200680255889892,-0.3275001049041748,0.5167327963315217,0.4287885889870519,-0.1593011462721915,0.7237062853721504,0.2141979456506027,-0.9333722958734404,2.0096827770811347,5690,2.6780615157501058,serve,serves_watch-right
1430,1761597269233272064,12.464272022247314,0.943368434906006,0.6209838390350342,-2.4356868267059326,-0.7760857343673706,-0.2371652722358703,-0.584331750869751,-0.3780890703201294,0.4054391980171203,-0.2972753047943115,0.5237627772762881,0.4309055352228328,-0.1488440436708633,0.7196098958050537,0.2394468209115489,-0.9254279791247644,2.003129069561331,5700,2.6847970593898736,serve,serves_watch-right
1440,1761597269243318016,12.474318027496338,0.9334948062896729,0.598347008228302,-2.4022281169891357,-0.7664415836334229,-0.2614847719669342,-0.5866795778274536,-0.3573071360588074,0.4055735766887665,-0.2594812512397766,0.5307712198244173,0.4329840399990574,-0.1385100271372161,0.7152772839393265,0.2645601865105925,-0.9174746556556338,1.9960447759339677,5710,2.6457761851068815,serve,serves_watch-right
1450,1761597269253363968,12.48436403274536,0.8664066195487976,0.5688862800598145,-2.41516375541687,-0.756417989730835,-0.2852109670639038,-0.5886310338973999,-0.322073221206665,0.4004758596420288,-0.2519298791885376,0.5376829495349748,0.4349670623825364,-0.1284061054336763,0.7107830487990326,0.2892265437132217,-0.9095011813120044,1.98850508936478,5720,2.6281757923543827,serve,serves_watch-right
1460,1761597269263410176,12.494410037994385,0.7989679574966431,0.5937303900718689,-2.434725046157837,-0.7457705140113831,-0.3084474503993988,-0.5904968976974487,-0.3014401793479919,0.3995576500892639,-0.2352477312088012,0.5446818295990551,0.4367129027153834,-0.1184625890918299,0.7060951131344441,0.3135604746740003,-0.901078881318244,1.9801122981110564,5730,2.630351996138451,serve,serves_watch-right
1470,1761597269273456128,12.504456043243408,0.678817629814148,0.5554488897323608,-2.4302279949188232,-0.7345301508903503,-0.3309880197048187,-0.592378556728363,-0.2712834477424621,0.3539067208766937,-0.1933879852294922,0.5516894773034188,0.4381696201897074,-0.1087110625252232,0.7013044929311549,0.3373504239557862,-0.8921210026174325,1.970994766698623,5740,2.583665022973871,serve,serves_watch-right
1480,1761597269283502080,12.514502048492432,0.5466004610061646,0.5749677419662476,-2.4291090965270996,-0.7228380441665649,-0.3523730039596557,-0.5944226980209351,-0.2620710134506225,0.3370684683322906,-0.1957842111587524,0.5590088558189719,0.439176515844653,-0.0995622053227074,0.6962186047057118,0.3601055379095429,-0.8825777241380397,1.9600914509073075,5750,2.5553729612533314,serve,serves_watch-right
1490,1761597269293547264,12.52454710006714,0.4950495362281799,0.5952334403991699,-2.416759729385376,-0.7104820609092712,-0.372956246137619,-0.5967568755149841,-0.2485023140907287,0.333863228559494,-0.2142171859741211,0.5663708116432739,0.4397896526997658,-0.0905903651410832,0.6910878441458731,0.3821931157623329,-0.8721761321321926,1.9483332343287727,5760,2.537736093739466,serve,serves_watch-right
1500,1761597269303593216,12.534593105316162,0.4625438153743744,0.5321609973907471,-2.4047224521636963,-0.6977984309196472,-0.392861545085907,-0.5989466905593872,-0.2338879704475402,0.302224338054657,-0.1798924207687378,0.5736740104813783,0.4402585724194138,-0.0818476993288189,0.6858363316781784,0.4037412735616836,-0.8614816899042032,1.9359691380231825,5770,2.5059593333143253,serve,serves_watch-right
1510,1761597269313639168,12.544639110565186,0.4415503740310669,0.4682505130767822,-2.4464056491851807,-0.6849731206893921,-0.4124836921691894,-0.6005573272705078,-0.2081390619277954,0.344459980726242,-0.1632366180419922,0.5808617602053995,0.4408580141947405,-0.0732499465743066,0.6803516173114723,0.4251788177118049,-0.8509701444204025,1.9232518105828065,5780,2.529649358343723,serve,serves_watch-right
1520,1761597269323685120,12.554685115814207,0.322521448135376,0.4699280261993408,-2.485659599304199,-0.6717238426208496,-0.4316369295120239,-0.6020603775978088,-0.1847062110900879,0.3851433992385864,-0.1700038313865661,0.5882899508988872,0.4413084768184731,-0.0649356831878176,0.6744962547112068,0.4463066781353826,-0.8400339071108236,1.9091217797390911,5790,2.550167852892837,serve,serves_watch-right
1530,1761597269333731072,12.564731121063232,0.2528998851776123,0.5064315795898438,-2.5743844509124756,-0.657576322555542,-0.4502447545528412,-0.6040472388267517,-0.180314302444458,0.3664434850215912,-0.1565423607826233,0.5959885608765048,0.4413184003672438,-0.0566961150162769,0.6684469381999832,0.4670394227477374,-0.8278014708912764,1.893497401765359,5800,2.635884405247818,serve,serves_watch-right
1540,1761597269343777280,12.574777126312256,0.4155503213405609,0.8171942830085754,-2.644432306289673,-0.6419528126716614,-0.4689188003540039,-0.6066396832466125,-0.1936337351799011,0.3526162803173065,-0.1213265657424926,0.6039761450345603,0.440875741555691,-0.0480491870737807,0.6622179950794145,0.4880662396369419,-0.8136729612463863,1.8764811130742536,5810,2.7988409723127647,serve,serves_watch-right
1550,1761597269353823232,12.58482313156128,0.2321095615625381,0.3513137102127075,-2.6311991214752197,-0.6246331930160522,-0.488331526517868,-0.6093977689743042,-0.2243810892105102,0.3706863224506378,-0.122627317905426,0.6118956119607895,0.440252817895369,-0.0384520882340961,0.6559592718362031,0.5101767848378032,-0.7977435614753349,1.8592082480362329,5820,2.664677276595449,serve,serves_watch-right
1560,1761597269363869184,12.594869136810305,0.166253849864006,0.6412643194198608,-2.888817310333252,-0.6078000068664551,-0.5061549544334412,-0.6118711233139038,-0.2480654716491699,0.3993281722068786,-0.0616060495376586,0.6203470119894972,0.4394948379152748,-0.0301449186922898,0.6489261489250319,0.53072062122399,-0.7820602786117681,1.838969521799875,5830,2.963802578181729,serve,serves_watch-right
1570,1761597269373915136,12.604915142059326,0.1692022681236267,0.8063949346542358,-2.8677778244018555,-0.5883002281188965,-0.5248238444328308,-0.6151933073997498,-0.1671777367591858,0.4127022624015808,-0.1574049592018127,0.6289987345749867,0.4381565398990076,-0.0205471645957799,0.6418390387942137,0.552508187042917,-0.7630560241924316,1.8175046321061668,5840,2.98379822513273,serve,serves_watch-right
1580,1761597269383960320,12.614960193634031,0.2294283211231231,0.8519267439842224,-2.855684518814087,-0.5678000450134277,-0.5425208806991577,-0.6190914511680603,-0.2441048622131347,0.3369239568710327,-0.1228213310241699,0.6374654613458466,0.4362772532467254,-0.0107898903160845,0.634967403317221,0.5734351362780892,-0.7422101002500165,1.7953372812343933,5850,2.988871125131255,serve,serves_watch-right
1590,1761597269394006272,12.625006198883057,0.2955329418182373,0.918367087841034,-2.859415292739868,-0.5465136170387268,-0.5602060556411743,-0.6224886775016785,-0.3317822813987732,0.480021059513092,-0.1551755666732788,0.6455134391604602,0.4344598601365313,-0.0005518916969356,0.6281375426036047,0.5946345004941259,-0.7204980778393457,1.7733293390117455,5860,3.0177795883867975,serve,serves_watch-right
1600,1761597269404052224,12.63505220413208,0.237966313958168,1.0170161724090576,-2.979103326797486,-0.5237734913825989,-0.5775483846664429,-0.6261782646179199,-0.3058468699455261,0.4899171590805053,-0.1823391914367675,0.6537146113594575,0.4322155802224348,0.0100285058502976,0.6210847927867501,0.6157223708796058,-0.6965810944990314,1.7495032350300237,5870,3.1568982392937937,serve,serves_watch-right
1610,1761597269414098176,12.645098209381104,0.1608802527189254,1.141453981399536,-3.0545852184295654,-0.4991640746593475,-0.5943439602851868,-0.6305477619171143,-0.2619748115539551,0.4720295071601867,-0.1536319255828857,0.6621075206959357,0.4292804148053208,0.0210815344758998,0.6139117405804269,0.6364496779198757,-0.6696198587482367,1.723511740279701,5880,3.2648568887496667,serve,serves_watch-right
1620,1761597269424144384,12.655144214630129,0.1607675999403,1.248374581336975,-3.131147623062134,-0.4727993607521057,-0.6104443073272705,-0.6354670524597168,-0.2933596670627594,0.48428475856781,-0.1446842551231384,0.670829482480991,0.4256947718845988,0.0324102136858425,0.60640022822616,0.6566214492797043,-0.6396620435342939,1.694682753032961,5890,3.374666021094011,serve,serves_watch-right
1630,1761597269434190336,12.66519021987915,0.2171576172113418,1.3300743103027344,-3.1628217697143555,-0.4449428021907806,-0.6262425780296326,-0.6401922702789307,-0.3054844439029693,0.481543481349945,-0.1043908596038818,0.6793574242942353,0.4218269829140394,0.0443381752902128,0.5988068108203486,0.6767243356910726,-0.6073720540057802,1.66458764570008,5900,3.4379785701221657,serve,serves_watch-right
1640,1761597269444236288,12.675236225128174,0.1474286019802093,1.446802258491516,-3.198679208755493,-0.4157616198062897,-0.6411749124526978,-0.6450092792510986,-0.2970221936702728,0.4641577005386352,-0.0981090068817138,0.6878087426211771,0.4174876429113769,0.0565634082075513,0.5911207647664398,0.6960283276975027,-0.57255725414859,1.6326545155667276,5910,3.513761609498097,serve,serves_watch-right
1650,1761597269454282240,12.685282230377195,0.1693479418754577,1.5263067483901978,-3.26037859916687,-0.3850152492523193,-0.655168354511261,-0.6500136256217957,-0.3165533542633056,0.4627397656440735,-0.0949814915657043,0.6960976497124179,0.4125492045331369,0.0692556571966281,0.5834851391128522,0.714405445658292,-0.5347523864732565,1.5989985932853763,5920,3.603936684447194,serve,serves_watch-right
1660,1761597269464327168,12.695327043533323,0.1460266411304474,1.6055293083190918,-3.277928113937378,-0.3530181348323822,-0.668412446975708,-0.6546778082847595,-0.3434387445449829,0.468644380569458,-0.0386205315589904,0.7043319509438926,0.4073077351682342,0.08222835263789,0.5755479450196982,0.7320722937563052,-0.494532450798397,1.5631463282709637,5930,3.65292497321427,serve,serves_watch-right
1670,1761597269474373120,12.705373048782349,0.0679570063948631,1.6949692964553833,-3.3489911556243896,-0.3196806311607361,-0.6803084015846252,-0.6595337390899658,-0.3353639245033264,0.4322768449783325,-0.0072295069694519,0.7124059023709408,0.4013944115035427,0.0954759461016124,0.5676659425062048,0.7481833067970265,-0.4513385275054578,1.525379387234577,5940,3.7541018674371363,serve,serves_watch-right
1680,1761597269484419072,12.715419054031372,0.043769646435976,1.7509127855300903,-3.3904354572296143,-0.2849845290184021,-0.6909030079841614,-0.6644071340560913,-0.359989196062088,0.4611209630966186,0.0204710364341735,0.7206081203822315,0.39490966916562,0.1088245879716267,0.5593991963434823,0.7627373659473288,-0.4051951758297139,1.4846006811856869,5950,3.816105862541244,serve,serves_watch-right
1690,1761597269494465024,12.725465059280396,0.0258721690624952,1.7682703733444214,-3.421382427215576,-0.2493905425071716,-0.7003426551818848,-0.6688231825828552,-0.3713675141334533,0.4601388573646545,0.0438689589500427,0.7284817177061185,0.3880754574865149,0.1224166673513797,0.5511133823312655,0.775877456015454,-0.3569104227270487,1.4424785334854602,5960,3.8514032761630097,serve,serves_watch-right
1700,1761597269504511232,12.73551106452942,-0.0821783989667892,1.7678872346878052,-3.460965394973755,-0.213122084736824,-0.7081519365310669,-0.6731268763542175,-0.3529027104377746,0.4532386660575866,0.073502242565155,0.7364335376636502,0.3807902651731002,0.1357767978406519,0.5424288622319207,0.7868773528450548,-0.3066293897886243,1.3977971848939186,5970,3.887217517586928,serve,serves_watch-right
1710,1761597269514557184,12.745557069778442,-0.1750504374504089,1.894499659538269,-3.4932632446289062,-0.1759756505489349,-0.7141522169113159,-0.6775095462799072,-0.3444863557815552,0.4550580382347107,0.0695536136627197,0.7442063466196077,0.372818924237898,0.149168591920443,0.5337712869442747,0.795412257166496,-0.254123558713729,1.3516308650354043,5980,3.9777706962465134,serve,serves_watch-right
1720,1761597269524603136,12.755603075027466,-0.3458791971206665,1.9951088428497312,-3.553706645965576,-0.1372286081314087,-0.7178975343704224,-0.6824891567230225,-0.3194974660873413,0.3570730090141296,0.0469300746917724,0.7522085092761219,0.3637632340776613,0.1625783429140494,0.524811468732373,0.8007774920121635,-0.1984249096156778,1.302564095377842,5990,4.090100565927192,serve,serves_watch-right
1730,1761597269534649088,12.76564908027649,-0.3571852147579193,2.032050609588623,-3.5544703006744385,-0.0977094322443008,-0.7196165323257446,-0.6874626278877258,-0.3564531803131103,0.3668943643569946,0.0609673261642456,0.7600036474016058,0.353973431302556,0.1759871734826448,0.5158737775997201,0.8032499115002909,-0.1411849075998041,1.252725541826226,6000,4.109874703193248,serve,serves_watch-right
1740,1761597269544694272,12.775694131851196,-0.453403115272522,2.1367850303649902,-3.5434353351593018,-0.0576088614761829,-0.7196741700172424,-0.691917896270752,-0.3497550189495086,0.4142237305641174,0.0697255134582519,0.7675167871894645,0.343728195598692,0.189451806081427,0.5068303213320021,0.8033329058917652,-0.0830680849081652,1.2025352592513212,6010,4.162614397873799,serve,serves_watch-right
1750,1761597269554740224,12.78574013710022,-0.5221866369247437,2.166008710861206,-3.5185751914978027,-0.0170591678470373,-0.7175672650337219,-0.6962802410125732,-0.2937013208866119,0.3829878568649292,0.0910099148750305,0.7746356331027978,0.3326985636081385,0.2029077563537627,0.4980759780417606,0.8003031768913584,-0.0244955346520675,1.1532114648707028,6020,4.164690144240409,serve,serves_watch-right
1760,1761597269564786176,12.795786142349243,-0.5435129404067993,2.192296028137207,-3.47167444229126,0.0233244821429252,-0.7136997580528259,-0.7000633478164673,-0.3009734153747558,0.4606327414512634,0.1132255792617797,0.7815466436115984,0.3213890105340186,0.2160496259500895,0.4890976775084882,0.7947660381945517,0.0333053554783274,1.1043797464068266,6030,4.141749826418074,serve,serves_watch-right
1770,1761597269574832128,12.805832147598268,-0.5745333433151245,2.217655897140503,-3.421113967895508,0.0635119900107383,-0.7082979679107666,-0.7030507326126099,-0.2624102830886841,0.4952242374420166,0.1635762453079223,0.7878836016807937,0.3097655258072267,0.2291723522283507,0.4803799379494327,0.7870841624622769,0.0900931575215742,1.0576285699921482,6040,4.117293652635508,serve,serves_watch-right
1780,1761597269584878080,12.81587815284729,-0.5227426290512085,2.2011282444000244,-3.3936891555786133,0.1032507047057151,-0.7015459537506104,-0.7051047086715698,-0.2123662829399109,0.5077898502349854,0.1944235563278198,0.793947773775345,0.2981168667192775,0.2420206484513705,0.4713802515973181,0.7775645679836214,0.1453997786465499,1.011925813059058,6050,4.078645791094734,serve,serves_watch-right
1790,1761597269594924288,12.825924158096312,-0.61786949634552,2.302736282348633,-3.3374173641204834,0.1427701413631439,-0.6934283971786499,-0.7062391638755798,-0.1763089448213577,0.5273364782333374,0.1815199255943298,0.7994313321677301,0.2861838908187599,0.2549101615474795,0.4626329560416382,0.7662364487704879,0.1994673033417135,0.9686091410410662,6060,4.101549922028498,serve,serves_watch-right
1800,1761597269604970240,12.835970163345335,-0.6842027306556702,2.3311545848846436,-3.273212194442749,0.1821401566267013,-0.6833728551864624,-0.7069840431213379,-0.16350919008255,0.5026172995567322,0.1717057824134826,0.8045830592123517,0.2736605341602339,0.2676151720805226,0.4540243746200471,0.7523726506132439,0.2521466588065441,0.9274632627482148,6070,4.076313671089859,serve,serves_watch-right
1810,1761597269615015168,12.846015214920044,-0.8049375414848328,2.4225375652313232,-3.188387155532837,0.2209530621767044,-0.6715993881225586,-0.7072015404701233,-0.1782437115907669,0.5115652084350586,0.2005639672279358,0.8091342542806516,0.2605856795628727,0.2801683911909242,0.4459850188126297,0.7363653777440183,0.3028237810984852,0.8899228509856802,6080,4.0844124858069035,serve,serves_watch-right
1820,1761597269625061376,12.856061220169067,-0.9333626627922058,2.501906394958496,-3.1203184127807617,0.2595695853233337,-0.6577362418174744,-0.7071114778518677,-0.1304802298545837,0.4505219459533691,0.2171975374221801,0.8133972992087667,0.2467799134673797,0.2924789524825517,0.438110225438712,0.7178095118993985,0.3518129491769082,0.8549600019275787,6090,4.106956107212181,serve,serves_watch-right
1830,1761597269635107328,12.86610722541809,-0.9231960773468018,2.5000805854797363,-3.0361552238464355,0.2974565923213959,-0.6425090432167053,-0.7061881422996521,-0.1170214116573333,0.4645915627479553,0.2598533630371094,0.8170752383704105,0.2326066317544036,0.3046310397510973,0.4306763840282974,0.697768093041798,0.3986598058238885,0.8234698592397375,6100,4.039917384602218,serve,serves_watch-right
1840,1761597269645153280,12.876153230667114,-0.9314971566200256,2.5662612915039062,-2.9708311557769775,0.3344935476779938,-0.6264863610267639,-0.7040091156959534,-0.0924892127513885,0.4904237985610962,0.2938834428787231,0.8203167304765832,0.2185228398269517,0.3166120920773855,0.4231842347326565,0.677037071289462,0.4435517406862174,0.7940988685669409,6110,4.0347517550894825,serve,serves_watch-right
1850,1761597269655199232,12.886199235916138,-0.909713089466095,2.603705883026123,-2.931863307952881,0.3711071014404297,-0.6094978451728821,-0.7005653977394104,-0.059278517961502,0.4817970395088196,0.3184395432472229,0.8229466726401232,0.2041734257025759,0.3286799683493095,0.4159823545304218,0.655426997020734,0.4871439640701305,0.7674725284576945,6120,4.025255853603743,serve,serves_watch-right
1860,1761597269665245184,12.896245002746582,-0.9205902814865112,2.6421005725860596,-2.827345848083496,0.4068551957607269,-0.5918578505516052,-0.6958255171775818,-0.0801798105239868,0.4972991943359375,0.3370456099510193,0.8251861410097303,0.1899597949973872,0.3405914444461342,0.4086324781731936,0.6333617774221499,0.529099992007162,0.7425123908893727,6130,3.9776961229714347,serve,serves_watch-right
1870,1761597269675291136,12.906291007995604,-0.873595118522644,2.7059662342071533,-2.7100977897644043,0.4417519867420196,-0.5738005042076111,-0.6896434426307678,-0.0957436859607696,0.4649900794029236,0.3181835412979126,0.8266691250927892,0.1756874253160391,0.3525793456008744,0.4017957454592778,0.6111387984794034,0.5697041752277577,0.7206237643076475,6140,3.928110451840903,serve,serves_watch-right
1880,1761597269685337088,12.916337013244627,-0.7879257798194885,2.655055046081543,-2.5912837982177734,0.4752891361713409,-0.5559143424034119,-0.6819526553153992,-0.1206443309783935,0.4519256949424743,0.3397438526153564,0.8276314770506716,0.1619347516375786,0.3644184381364071,0.3949714485405648,0.5894625483462931,0.6086782370508143,0.7004064442315108,6150,3.792742550600178,serve,serves_watch-right
1890,1761597269695382016,12.926382064819336,-0.833842933177948,2.671802282333374,-2.491812229156494,0.5073069334030151,-0.5379492044448853,-0.6732386946678162,-0.1245859861373901,0.4646307229995727,0.3587855696678161,0.8280508820134922,0.1484236463557936,0.3759668527138917,0.3885243618823052,0.5680024401468134,0.6457578194309731,0.6827077263168785,6160,3.7473923811720713,serve,serves_watch-right
1900,1761597269705428224,12.93642807006836,-0.9347759485244752,2.694468259811402,-2.3625447750091553,0.5383121371269226,-0.5192011594772339,-0.663814902305603,-0.0943271517753601,0.4127863645553589,0.336574912071228,0.828054922988891,0.1346751955094412,0.3872404260947585,0.3824035593290994,0.5459159792889166,0.6813744296310865,0.6674230892866353,6170,3.703455560823429,serve,serves_watch-right
1910,1761597269715474176,12.946474075317385,-1.0180280208587646,2.63589859008789,-2.1885578632354736,0.5675883293151855,-0.5001551508903503,-0.6539788842201233,-0.0975260138511657,0.3458278179168701,0.3672205209732055,0.8275216127708808,0.1208339312419419,0.3980071711167158,0.3770909434427847,0.5237779697098484,0.714794599119467,0.6556167571360302,6180,3.5740912060565497,serve,serves_watch-right
1920,1761597269725520128,12.956520080566406,-1.1164873838424685,2.615568161010742,-2.087510585784912,0.5952428579330444,-0.4807821810245514,-0.6438434720039368,-0.0655493140220642,0.2750937044620514,0.3519886136054992,0.8266754975545546,0.107007877955707,0.408200412276012,0.3721953696161107,0.5015465478631268,0.7461953345573892,0.6462184912339937,6190,3.5278097070188723,serve,serves_watch-right
1930,1761597269735566080,12.96656608581543,-1.1843384504318235,2.548103094100952,-1.987862467765808,0.6214972734451294,-0.4609613120555877,-0.6334474682807922,-0.0319435000419616,0.2205896079540252,0.3484286069869995,0.8254469291683136,0.0929575632975322,0.4178937079798175,0.367914432093958,0.4790781721449105,0.7758759742037763,0.6396230008255467,6200,3.4419593452116874,serve,serves_watch-right
1940,1761597269745612032,12.976612091064451,-1.2103101015090942,2.494192600250244,-1.9135067462921145,0.6462336778640747,-0.4410625994205475,-0.6227726936340332,-0.0277034044265747,0.1965405344963073,0.3547826409339905,0.8240457295537993,0.0791051261076244,0.427031639383603,0.3637788166738927,0.4567823290054753,0.8038837056278414,0.6344702856804522,6210,3.3685835802401374,serve,serves_watch-right
1950,1761597269755658240,12.986658096313477,-1.2961037158966064,2.4516408443450928,-1.8558399677276611,0.6697993874549866,-0.4208471775054931,-0.6117650270462036,-0.003554880619049,0.1485540568828582,0.3201390504837036,0.8223338917583354,0.0650858125443093,0.4357537476718322,0.3600687618728216,0.4343790110423816,0.8306512741420561,0.6314180986337292,6220,3.3368502600262895,serve,serves_watch-right
1960,1761597269765703168,12.996703147888184,-1.3844058513641355,2.395267963409424,-1.7389200925827026,0.6919971704483032,-0.4004459977149963,-0.6006521582603455,-0.0178027749061584,0.1328983604907989,0.3183035254478454,0.8204255498008921,0.0510462626371697,0.4439236326636217,0.3566905117467357,0.412003536328663,0.8559458197786014,0.6301477377450521,6230,3.2676797986055215,serve,serves_watch-right
1970,1761597269775749120,13.006749153137209,-1.4391343593597412,2.3553555011749268,-1.6171995401382446,0.7128099799156189,-0.3802191615104675,-0.5893517136573792,-0.0294297337532043,0.1178289949893951,0.2987328171730041,0.8181386612575577,0.0369509453089382,0.4516179358179324,0.3540129250145444,0.3900332484983735,0.8799258158185853,0.6313253365031667,6240,3.1990844930742472,serve,serves_watch-right
1980,1761597269785795328,13.01679515838623,-1.4393309354782104,2.2850708961486816,-1.4929569959640503,0.7322479486465454,-0.3605893552303314,-0.57774418592453,-0.0177704095840454,0.1040585935115814,0.2902227640151977,0.8156238900248562,0.0232226160750513,0.4588993686863179,0.3516103172040388,0.3688996706231793,0.9027983433356084,0.6336403924526889,6250,3.085797001432259,serve,serves_watch-right
1990,1761597269795841280,13.026841163635254,-1.3738446235656738,2.1919431686401367,-1.3979182243347168,0.7502371072769165,-0.3418821096420288,-0.565916121006012,-0.0029073357582092,0.1234525442123413,0.2781353592872619,0.8128482303245657,0.0099612406168469,0.4657711015183805,0.3496225335799827,0.3489189503850668,0.9245384628862404,0.6372044621709672,6260,2.940448820533287,serve,serves_watch-right
2000,1761597269805887232,13.036887168884276,-1.369778752326965,2.1854400634765625,-1.3047184944152832,0.7671191692352295,-0.324122279882431,-0.5536000728607178,0.0245679020881652,0.1381939649581909,0.2477986812591552,0.809891205950901,-0.0027051251851122,0.4724326833988895,0.3476728105695383,0.3300837766200236,0.9456801243362164,0.6409944523116398,6270,2.8904554054757776,serve,serves_watch-right
2010,1761597269815933184,13.0469331741333,-1.2655655145645142,2.110487222671509,-1.2364850044250488,0.7831604480743408,-0.307421326637268,-0.5405108332633972,0.0415924191474914,0.1300378739833831,0.2100359201431274,0.8065927638357309,-0.0148979683691209,0.4790852135124787,0.3459243719649418,0.3124819263658592,0.9667008243826376,0.6453031053167063,6280,2.754034777355336,serve,serves_watch-right
2020,1761597269825979136,13.056979179382324,-1.243018627166748,2.0876882076263428,-1.1520947217941284,0.7981489300727844,-0.2916271090507507,-0.5271735787391663,0.0336076021194458,0.1455547213554382,0.1963325142860412,0.8032048867253156,-0.0264919036263861,0.4855011818483035,0.3441638904941836,0.295927436581429,0.9870784483856548,0.649621460189606,6290,2.6890257729764304,serve,serves_watch-right
2030,1761597269836025344,13.067025184631348,-1.1769907474517822,2.0813794136047363,-1.0871055126190186,0.8124105334281921,-0.2765550911426544,-0.5133286714553833,0.0506417751312255,0.1241808533668518,0.1401445269584655,0.7995473094930341,-0.0378166860642558,0.4918389660436995,0.3426198214246303,0.2802075381074481,1.0072801142213952,0.6545803324410628,6300,2.626641558822094,serve,serves_watch-right
2040,1761597269846070272,13.077070236206056,-1.0922521352767944,2.0565707683563232,-1.0171834230422974,0.8259157538414001,-0.2624519467353821,-0.4989811480045318,0.0419583916664123,0.1130836606025695,0.1307255625724792,0.7957502864801327,-0.048553204400738,0.4981485781128765,0.3409870075840062,0.2655623363899203,1.0273272629182566,0.6592529295893533,6310,2.5410942856152503,serve,serves_watch-right
2050,1761597269856116224,13.087116241455078,-1.0849201679229736,2.0572726726531982,-0.9595451354980468,0.8386719226837158,-0.2490377575159073,-0.4843653440475464,0.0435456037521362,0.1028432846069336,0.0993707776069641,0.7917700547759314,-0.0589993329417135,0.5043177633436676,0.3395335135757525,0.2516865792030096,1.047056363726873,0.6644172972889437,6320,2.5159788328739197,serve,serves_watch-right
2060,1761597269866162176,13.097162246704102,-1.0764838457107544,2.089470863342285,-0.9202813506126404,0.8509599566459656,-0.2360094636678695,-0.469219297170639,0.0643843412399292,0.0737017393112182,0.0625725984573364,0.7875867706338324,-0.0693144463189579,0.510476107598025,0.3381076448753257,0.2382572500875156,1.0668789063805255,0.6698704823236115,6330,2.524207543590264,serve,serves_watch-right
2070,1761597269876208384,13.107208251953123,-1.0240029096603394,2.0813024044036865,-0.8622333407402039,0.8628130555152893,-0.2236049622297287,-0.4533809721469879,0.0669049024581909,0.0353877991437912,0.0601772367954254,0.7831000580672082,-0.0794724716163473,0.5167142751213682,0.3368155028854903,0.225511523044857,1.086982239498529,0.6757555974447191,6340,2.4746409823353,serve,serves_watch-right
2080,1761597269886254336,13.117254257202148,-0.9708272218704224,2.0911543369293213,-0.8213689923286438,0.8740529417991638,-0.21197409927845,-0.4371481537818908,0.0451670885086059,0.0330190360546112,0.0304861664772033,0.7785050957878913,-0.0891685737224756,0.5229482635672772,0.3354160511322885,0.2135945278999255,1.1070373355193213,0.681321172828589,6350,2.4474637846435896,serve,serves_watch-right
2090,1761597269896300288,13.127300262451172,-0.9212795495986938,2.0934011936187744,-0.7896845936775208,0.8848069310188293,-0.2009054869413375,-0.4204206764698028,0.0441786050796508,0.0414511412382125,0.0116225183010101,0.7736952351766967,-0.0986693956824311,0.5292012938243239,0.3340747333388963,0.2022821593921496,1.1272213116045096,0.6871145991480634,6360,2.4196459086909625,serve,serves_watch-right
2100,1761597269906346240,13.137346267700195,-0.8376866579055786,2.086390972137451,-0.7232133746147156,0.8950234055519104,-0.1906109452247619,-0.4032377600669861,0.0443534255027771,0.0332775861024856,0.030404508113861,0.7687609972799987,-0.1077181532547702,0.5355164935317487,0.3326041124099163,0.1917844656525112,1.1474990630386035,0.6924977741215621,6370,2.3617332217401867,serve,serves_watch-right
2110,1761597269916391168,13.147391080856323,-0.7940924167633057,2.1007063388824463,-0.6840115189552307,0.9046878814697266,-0.1812056303024292,-0.3856221437454223,0.0434780716896057,0.0242079347372055,0.03151136636734,0.763620717454808,-0.1163822312303626,0.5418893847849461,0.3312017167681378,0.1822122311743085,1.1678684052201895,0.6978810513489048,6380,2.3476417202472186,serve,serves_watch-right
2120,1761597269926437120,13.157437086105348,-0.7400832176208496,2.1290223598480225,-0.6671523451805115,0.913961946964264,-0.1722501665353775,-0.3674282431602478,0.043099820613861,0.0223173201084136,0.0458035171031951,0.7583105777216936,-0.1248199982639756,0.5483665291659557,0.3296652802843544,0.1731135191033429,1.1885523603864874,0.7030338847991876,6390,2.3506491931840294,serve,serves_watch-right
2130,1761597269936483072,13.16748309135437,-0.6546104550361633,2.1449966430664062,-0.6432841420173645,0.9228042364120485,-0.1638263761997223,-0.3487025499343872,0.0292069911956787,0.0360950529575347,0.0713587701320648,0.7528326723283927,-0.1329874560548552,0.5549441988531922,0.328015839833747,0.1645681906680939,1.209509489224705,0.7079384064648699,6400,2.333096640514452,serve,serves_watch-right
2140,1761597269946529024,13.177529096603394,-0.6089617609977722,2.172675371170044,-0.6097314953804016,0.931218683719635,-0.1559633463621139,-0.3294041752815246,0.0271705389022827,0.0356325507164001,0.082822173833847,0.7472231751976677,-0.1407827235976462,0.5616744012612415,0.3261280690585237,0.1566026614755719,1.2307984229910247,0.7122340055097783,6410,2.3373329226503476,serve,serves_watch-right
2150,1761597269956575232,13.187575101852415,-0.5737495422363281,2.2152962684631348,-0.6066522598266602,0.9392239451408386,-0.1485150903463363,-0.3095184862613678,0.0344089269638061,0.0456860959529876,0.0959564745426178,0.7413926711819718,-0.1484322053259796,0.5685144129872137,0.3241854332146963,0.1490665348256607,1.2524572880374727,0.7165040696548969,6420,2.367435967166985,serve,serves_watch-right
2160,1761597269966621184,13.19762110710144,-0.5584579706192017,2.27146577835083,-0.6223425269126892,0.9469091892242432,-0.1410799622535705,-0.2888934314250946,0.0340936183929443,0.0536165684461593,0.0935962200164794,0.7353751295699704,-0.1560545142743179,0.5755000249208797,0.3219784236262925,0.1415522051907889,1.274675507567508,0.7205092817658706,6430,2.420483899548008,serve,serves_watch-right
2170,1761597269976667136,13.207667112350464,-0.6140478253364563,2.294398069381714,-0.5897045135498047,0.9541780948638916,-0.1337278485298156,-0.2676956355571747,0.0156094431877136,0.0461576581001281,0.1080277264118194,0.7290676969869089,-0.163843153119804,0.5825011611829438,0.3198563164085223,0.1341296718453548,1.2972767371554226,0.7251243785460784,6440,2.447257372219763,serve,serves_watch-right
2180,1761597269986712320,13.217712163925173,-0.6464108228683472,2.3326685428619385,-0.5559327006340027,0.960912585258484,-0.1266858130693435,-0.2461661845445633,-0.0126093626022338,0.057944968342781,0.1096305251121521,0.7225330721800901,-0.1716400975241393,0.5894544822057777,0.3178507526601144,0.127027148352236,1.3200100996244668,0.7302256896024871,6450,2.483596313899098,serve,serves_watch-right
2190,1761597269996758272,13.227758169174194,-0.6668605208396912,2.39330792427063,-0.5387592911720276,0.967191994190216,-0.119872860610485,-0.2239871323108673,-0.013761818408966,0.051940731704235,0.1069675087928772,0.7156411259517352,-0.1796094924547272,0.5964451922646881,0.3159927694341014,0.120161815367203,1.3432231323348227,0.7360562578415827,6460,2.5422209480010505,serve,serves_watch-right
2200,1761597270006804224,13.237804174423218,-0.6788868308067322,2.388967514038086,-0.5126770734786987,0.97294282913208,-0.1133585199713707,-0.2013262510299682,-0.00492525100708,0.0427103489637374,0.1490038633346557,0.708528191785536,-0.1875190815221129,0.6034678680618492,0.3140876698512936,0.1136027153109272,1.3667510158143956,0.7419942180843717,6470,2.535920127654419,serve,serves_watch-right
2210,1761597270016850176,13.24785017967224,-0.680888295173645,2.4333159923553467,-0.5029799938201904,0.9781076908111572,-0.1071404367685318,-0.178398847579956,0.0001332163810729,0.0732811838388443,0.1569603234529495,0.701204974557084,-0.1954378814446577,0.6104134736085733,0.3122674057888006,0.1073464792849008,1.3903875915317956,0.7483621400489837,6480,2.5763587606038327,serve,serves_watch-right
2220,1761597270026896128,13.257896184921265,-0.7153975367546082,2.5035572052001953,-0.4792251288890838,0.9827648997306824,-0.1011685654520988,-0.1547190397977829,0.0150072574615478,0.0729245468974113,0.1827036291360855,0.6935548943900672,-0.2034028255617227,0.6174688433786999,0.3103886270455697,0.101341940433995,1.4146455773620958,0.7549451600322441,6490,2.6474986382363133,serve,serves_watch-right
2230,1761597270036942336,13.267942190170288,-0.7264293432235718,2.537294864654541,-0.4842638373374939,0.9868539571762084,-0.0954100042581558,-0.1304469257593155,0.0067983865737915,0.0711638033390045,0.2310023307800293,0.6855466389723546,-0.2115621247996226,0.6245142177061153,0.3086250063731494,0.095555351821381,1.439373610935808,0.7622505909902634,6500,2.6832957878421397,serve,serves_watch-right
2240,1761597270046988288,13.277988195419312,-0.7363445162773132,2.6084163188934326,-0.5163788795471191,0.9903731346130372,-0.0895809531211853,-0.1055293902754783,0.0215744972229003,0.0818905234336853,0.235457956790924,0.6772431185507345,-0.2199367163236104,0.6315561307091307,0.3067678291030309,0.0897011965275467,1.4646416929923634,0.7699735650662689,6510,2.759109654682752,serve,serves_watch-right
2250,1761597270057033216,13.28803324699402,-0.7718253135681152,2.6683542728424072,-0.5207259058952332,0.993288278579712,-0.0837054252624511,-0.0798239037394523,0.0274484157562255,0.0849108695983886,0.2466482520103454,0.6685279590851005,-0.2286706408865102,0.6385904678625205,0.304930060653833,0.0838034843615355,1.4906053803179369,0.7785203629971041,6520,2.826125317308357,serve,serves_watch-right
2260,1761597270067079424,13.298079252243042,-0.8027358055114746,2.714974164962769,-0.5104525089263916,0.9955134987831116,-0.0780470222234726,-0.0534935407340526,-0.009505808353424,0.1263105869293213,0.2602195739746094,0.6595716683013032,-0.237309065811879,0.6457070835139597,0.3028398685759238,0.0781264768535167,1.5171133352105617,0.7868228337280465,6530,2.876809213996418,serve,serves_watch-right
2270,1761597270077125376,13.308125257492064,-0.91037917137146,2.8119611740112305,-0.5070636868476868,0.9970072507858276,-0.072637639939785,-0.0264605972915887,-0.0359325408935546,0.1449337601661682,0.244691789150238,0.6501541359974811,-0.2462399909337369,0.6527906006677222,0.3008817325867288,0.0727016643556054,1.544262530722618,0.7960707848814566,6540,2.9988380186887675,serve,serves_watch-right
2280,1761597270087171328,13.318171262741089,-1.053163766860962,2.9348702430725098,-0.4686875343322754,0.9977093935012816,-0.0676236227154731,0.0017445844132453,-0.0337506532669067,0.1381955295801162,0.2524515390396118,0.6400756577831798,-0.2555264998120494,0.6599837119786748,0.2990499599413531,0.0676752666631132,1.5725449147056347,0.8063534130194416,6550,3.15313895480991,serve,serves_watch-right
2290,1761597270097217280,13.328217267990112,-1.178088903427124,2.9985055923461914,-0.42088183760643,0.9975146651268004,-0.0633665397763252,0.0308068562299013,-0.0326404571533203,0.1470457464456558,0.2830663919448852,0.6292783419281737,-0.2652221203729622,0.6671286647378281,0.2976664252332685,0.0634090202448497,1.601670126037143,0.8182804625639316,6560,3.249010737584053,serve,serves_watch-right
2300,1761597270107263232,13.338263273239136,-1.2856096029281616,3.101857900619507,-0.3841376602649688,0.9963614344596864,-0.0599086210131645,0.0606184490025043,-0.0297631025314331,0.1586787551641464,0.279118537902832,0.617851949494527,-0.2751484568457421,0.6742422048283616,0.2965630456301326,0.0599445163596737,1.6315612440754057,0.8313244603975183,6570,3.3796266404457467,serve,serves_watch-right
2310,1761597270117309440,13.34830927848816,-1.428382396697998,3.211730718612671,-0.3431067168712616,0.9941561818122864,-0.0573399923741817,0.0914634689688682,-0.0257266759872436,0.1426366120576858,0.2939125299453735,0.6055778626593515,-0.2855415907397884,0.6813205824233712,0.2958778389649559,0.0573714583943942,1.6625391749723455,0.8460636406099411,6580,3.53174357778692,serve,serves_watch-right
2320,1761597270127354112,13.358354091644289,-1.5516691207885742,3.280013084411621,-0.3474791049957275,0.990841805934906,-0.0555348359048366,0.123079165816307,-0.044278085231781,0.1401906013488769,0.3078596591949463,0.5926182859360183,-0.2962507692524547,0.6883132015040141,0.2954048262644444,0.0555634229388418,1.694380063004878,0.8619643933004992,6590,3.6451206595569445,serve,serves_watch-right
2330,1761597270137400064,13.36840009689331,-1.6710294485092163,3.3576040267944336,-0.3791356384754181,0.986391007900238,-0.0542056486010551,0.1552240699529647,-0.065767228603363,0.1487643718719482,0.3037450313568115,0.5790339535040495,-0.3074620684100974,0.6950389289655631,0.2951400173008986,0.0542322291305162,1.7268819564543103,0.8793442962281957,6600,3.7695607238633753,serve,serves_watch-right
2340,1761597270147446272,13.378446102142334,-1.809114933013916,3.45098614692688,-0.3750277161598205,0.9807173013687134,-0.0534488633275032,0.1879816651344299,-0.0828137397766113,0.1273929625749588,0.3046789467334747,0.5648086815684352,-0.3190597393253365,0.7015637624267802,0.2949584242283088,0.0534743436882514,1.7601770379492392,0.8978512226050315,6610,3.914440958173112,serve,serves_watch-right
2350,1761597270157492224,13.388492107391356,-1.8829022645950315,3.558105945587158,-0.3705092966556549,0.9737023711204528,-0.0536481663584709,0.2214180380105972,-0.0839927792549133,0.1220380663871765,0.2860282957553863,0.5497888059861148,-0.3310432494307656,0.7078978630501761,0.2949972973404858,0.053673934867079,1.7943921066397466,0.9176993388651918,6620,4.042612521247621,serve,serves_watch-right
2360,1761597270167538176,13.39853811264038,-1.9125208854675293,3.7304940223693848,-0.3441576063632965,0.965134620666504,-0.0547126829624176,0.2559725344181061,-0.0655984282493591,0.1340126395225525,0.2638791799545288,0.5339693243733925,-0.3431053351244251,0.7143283524609798,0.2947720952150304,0.054740015983389,1.830047155658498,0.9376768790078356,6630,4.2062770054171335,serve,serves_watch-right
2370,1761597270177584128,13.408584117889404,-1.99734628200531,3.837194204330444,-0.3613927066326141,0.9549123644828796,-0.0566905029118061,0.2914251685142517,-0.0467244982719421,0.121784508228302,0.257891297340393,0.5172730695860118,-0.3554658389461182,0.7206640113741626,0.2944758636236017,0.0567209124207564,1.8670034002745528,0.9584606149421212,6640,4.340974109620424,serve,serves_watch-right
2380,1761597270187630080,13.418630123138428,-2.1419856548309326,4.004543304443359,-0.3717063069343567,0.942937672138214,-0.0596101470291614,0.3275895714759826,-0.0208797454833984,0.1256654560565948,0.2719740271568298,0.4997200711517552,-0.3680994082694407,0.726840846668551,0.2940832738277128,0.0596455058801934,1.9051653452954729,0.9799955169262486,6650,4.556603472025892,serve,serves_watch-right
2390,1761597270197675264,13.428675174713137,-2.2888989448547363,4.1833319664001465,-0.3752211332321167,0.9288981556892396,-0.0638473629951477,0.364789605140686,-0.001438558101654,0.1441085934638977,0.2677634656429291,0.480922881833498,-0.3812979868068787,0.7328073753299602,0.293799731183421,0.0638908250440168,1.9450043425824228,1.003108246826539,6660,4.783316382980163,serve,serves_watch-right
2400,1761597270207721216,13.438721179962158,-2.3845255374908447,4.341370582580566,-0.4147365987300873,0.9126728773117064,-0.0692588537931442,0.4027800858020782,-0.0099017620086669,0.1598350405693054,0.2621217370033264,0.4610380189274726,-0.3948315110537707,0.738578443960766,0.2933496990812453,0.0693143431111085,1.9864078989869796,1.0270445114419031,6670,4.970459437573968,serve,serves_watch-right
2410,1761597270217767168,13.448767185211182,-2.4421021938323975,4.480928897857666,-0.4742191135883331,0.8942425847053528,-0.0754739865660667,0.4411730170249939,-0.0094923377037048,0.1790811717510223,0.259159505367279,0.440213018260245,-0.4087989194946662,0.7439556141218148,0.2926190715885478,0.0755458281285535,2.029108386764778,1.0518913409255148,6680,5.1251800632240645,serve,serves_watch-right
2420,1761597270227813120,13.458813190460203,-2.5056986808776855,4.600896835327148,-0.5390952825546265,0.8735732436180115,-0.0824222713708877,0.4796623289585113,-0.0129166841506958,0.2023563683032989,0.276364803314209,0.4186020096799969,-0.4229904372378557,0.7489394206707881,0.2914465120171,0.0825158776343621,2.0729335639362936,1.0770949771977485,6690,5.266630924257765,serve,serves_watch-right
2430,1761597270237859328,13.468859195709229,-2.622100591659546,4.781374931335449,-0.585726261138916,0.8504849076271057,-0.0904146283864975,0.5181704163551331,-0.0150356888771057,0.1965394914150238,0.2642239332199096,0.3959783795439111,-0.4376271327665874,0.7533708964751605,0.2900273912230108,0.090538268064152,2.1180002815174936,1.1033828726045711,6700,5.484526688764691,serve,serves_watch-right
2440,1761597270247905280,13.478905200958252,-2.6819446086883545,4.972415447235107,-0.6910487413406372,0.8245841264724731,-0.0994452014565467,0.5569303631782532,-0.0074608325958251,0.1810339391231537,0.2421570420265197,0.3722208062651209,-0.4525821940700654,0.7573866540937725,0.2880736152138841,0.099609846562627,2.16482595031761,1.1301988436051986,6710,5.691686097008805,serve,serves_watch-right
2450,1761597270257951232,13.488951206207275,-2.8031375408172607,5.158028602600098,-0.7867015600204468,0.7958378791809082,-0.1092543974518776,0.5955715775489807,-0.0213780403137207,0.175782710313797,0.2526644468307495,0.3473576297096409,-0.4681331519273863,0.7606820321851442,0.2855816373019525,0.1094729251496624,2.213245695121245,1.1581997504328143,6720,5.922983917124743,serve,serves_watch-right
2460,1761597270267996416,13.498996257781982,-2.963005304336548,5.382983684539795,-0.8657670617103577,0.7640154957771301,-0.1206467226147651,0.6338179111480713,-0.041313350200653,0.181483507156372,0.266328752040863,0.3212259200206774,-0.4839478029297732,0.7633501642268387,0.2826749105787524,0.120941337741067,2.2633200041953976,1.1869232781921424,6730,6.205277301353319,serve,serves_watch-right
2470,1761597270278042368,13.509042263031006,-3.1684603691101074,5.613800525665283,-0.9227052927017212,0.728865921497345,-0.1340236514806747,0.6714102625846863,-0.0428614616394043,0.2215938717126846,0.2928230166435241,0.293542178538099,-0.5002783377965064,0.7651318257649637,0.2795134228984404,0.1344281527913371,2.31518580668492,1.2171592864134355,6740,6.511933853300488,serve,serves_watch-right
2480,1761597270288088320,13.51908826828003,-3.4558959007263184,5.821147441864014,-0.9394317865371704,0.6903735399246216,-0.1503583788871765,0.7076557278633118,-0.050587773323059,0.245985209941864,0.2859507799148559,0.2641803309458774,-0.5167791915992686,0.7660072745116309,0.2763708584709793,0.1509307642475638,2.36855570943811,1.2485295870209572,6750,6.834581632999444,serve,serves_watch-right
2490,1761597270298134272,13.529134273529053,-3.6439149379730225,6.050269603729248,-0.9762545824050904,0.6485793590545654,-0.1698414981365203,0.7419561743736267,-0.0357862710952758,0.2749592661857605,0.2865625023841858,0.2330871233270537,-0.5335069813037054,0.7657338841824559,0.2732990661445936,0.1706688259346176,2.4232455271923103,1.2812642583556817,6760,7.130003601868651,serve,serves_watch-right
2500,1761597270308180224,13.539180278778076,-3.9405405521392822,6.299023628234863,-0.9698337316513062,0.6031956672668457,-0.1924947798252105,0.7740156650543213,-0.0049291849136352,0.2451986670494079,0.3282942771911621,0.2002143910917185,-0.5501695857829899,0.7644091004422612,0.2700115155539764,0.1937038444773539,2.4795975237314702,1.314441227849408,6770,7.493072532623981,serve,serves_watch-right
2510,1761597270318226176,13.54922604560852,-4.334715366363525,6.439292907714844,-0.9763584733009338,0.554590106010437,-0.2196905016899109,0.8025996088981628,-0.0193880200386047,0.265787273645401,0.3847783803939819,0.1652355925698627,-0.5668043090473017,0.7615987697569108,0.2672030242622571,0.2214972058941925,2.536937792819529,1.3489340353029529,6780,7.823523907237792,serve,serves_watch-right
2520,1761597270328272128,13.559272050857544,-4.608606815338135,6.572271823883057,-1.0704421997070312,0.5036775469779968,-0.2509840130805969,0.8266292810440063,-0.0367128252983093,0.3865735828876495,0.4728854894638061,0.1286977829708585,-0.5830037105646706,0.7572458778173088,0.2648060427256471,0.2536966579913698,2.594352101475611,1.383788290692772,6790,8.098139305315874,serve,serves_watch-right
2530,1761597270338317056,13.569317102432253,-5.102142333984375,6.644765853881836,-1.117363691329956,0.4510516226291656,-0.2862295508384704,0.8453550934791565,-0.0092943608760833,0.3947042524814605,0.5762910842895508,0.0906283049141048,-0.599014703603061,0.7509054015473501,0.2628859206794475,0.2902894128805054,2.651455210805429,1.4197840615141828,6800,8.45182058895313,serve,serves_watch-right
2540,1761597270348363264,13.579363107681274,-5.564428806304932,6.800527572631836,-1.0491257905960083,0.3968775272369385,-0.3275545239448547,0.8574358224868774,-0.0120203793048858,0.3783815801143646,0.6369336247444153,0.0503851932829292,-0.6141325038635592,0.7426703036804359,0.2621896262949471,0.3337141505618764,2.7080913798683843,1.4560313966316532,6810,8.84933376763786,serve,serves_watch-right
2550,1761597270358409216,13.589409112930298,-6.09614896774292,6.581725597381592,-0.945468544960022,0.3418419063091278,-0.3735852241516113,0.8623096942901611,0.0104224681854248,0.3769421875476837,0.8069711923599243,0.0084770470028209,-0.6280762696344863,0.732581085883748,0.2622465336174248,0.3828711114466118,2.7641711888872256,1.4914826641320251,6820,9.020867743496185,serve,serves_watch-right
2560,1761597270368455168,13.59945511817932,-6.446069240570068,6.812134742736816,-0.7975752353668213,0.2871609628200531,-0.4258351922035217,0.8580225706100464,0.0501803159713745,0.355354905128479,0.9794712066650392,-0.0353189535875637,-0.6400680939203979,0.7206414573698275,0.2640856327119796,0.4398847405524362,2.8186327024074886,1.5253084964292738,6830,9.412391548564903,serve,serves_watch-right
2570,1761597270378501120,13.609501123428345,-6.477505207061768,6.841578960418701,-0.5994356274604797,0.2314831763505935,-0.4791691601276397,0.8466481566429138,0.1837543249130249,0.4868747591972351,1.153855562210083,-0.0800270238897663,-0.6502022826155407,0.7075034078423288,0.2650882405175193,0.499707897732317,2.8747040439422404,1.5549245524261044,6840,9.440582580043728,serve,serves_watch-right
2580,1761597270388547072,13.619547128677368,-6.527341365814209,6.745060920715332,-0.4731349349021911,0.1771722882986068,-0.5331339240074158,0.8272716403007507,0.2518438100814819,0.4982828497886657,1.101347804069519,-0.1247853352932438,-0.6580699044569908,0.6932386452811055,0.2660692389573764,0.5623005046014119,2.9306151381973526,1.5798950301372172,6850,9.398185399142506,serve,serves_watch-right
2590,1761597270398593280,13.629593133926392,-6.33209753036499,6.844874382019043,-0.5566596388816833,0.1244419440627098,-0.5849589705467224,0.8014594316482544,0.3155147135257721,0.5615672469139099,1.1713799238204956,-0.1690153230125591,-0.6646320986644313,0.6774908727786381,0.2659024621130714,0.6248295058167136,2.9875535010377696,1.6014768033784084,6860,9.341179496896249,serve,serves_watch-right
2600,1761597270408638208,13.6396381855011,-6.415170192718506,6.846532344818115,-0.4833830296993255,0.0735581368207931,-0.6346773505210876,0.7692685127258301,0.3247725665569305,0.5253023505210876,1.2653995752334597,-0.2127927666166901,-0.6697315189204346,0.6603740886239182,0.2647357850529809,0.6875909298585338,3.046261603593696,1.619018664491992,6870,9.394842888712187,serve,serves_watch-right
2610,1761597270418684160,13.649684190750122,-6.472757339477539,6.874768257141113,-0.4811429679393768,0.0250870492309331,-0.6829580068588257,0.7300266623497009,0.235349953174591,0.5851796865463257,1.1533808708190918,-0.2564330119507619,-0.6731544581672875,0.6417759772639702,0.2631135688539848,0.7518045053517035,3.1072416042882502,1.6320720983827166,6880,9.45465624550956,serve,serves_watch-right
2620,1761597270428730368,13.659730195999146,-7.01802921295166,7.049090385437012,-0.4728706479072571,-0.0208670236170291,-0.7305582165718079,0.6825312972068787,0.1608511358499527,0.5616282224655151,1.117380142211914,-0.3006852972688091,-0.6747559374037464,0.6212648978362975,0.2613859313048237,0.819139030353672,-3.111029183466073,1.6400268953981167,6890,9.958213491663836,serve,serves_watch-right
2630,1761597270438776320,13.669776201248167,-7.454653263092041,7.393492221832275,-0.5604000091552734,-0.0645029321312904,-0.7782323956489563,0.6246550679206848,0.0837595388293266,0.4339329600334167,1.28769850730896,-0.346820112459798,-0.6744784066195707,0.5978347766947927,0.2595926804877604,0.8918461601406876,-3.0386956675811527,1.6419082055870895,6900,10.514258446390045,serve,serves_watch-right
2640,1761597270448822272,13.679822206497192,-7.931550979614258,7.65960168838501,-0.5700206756591797,-0.1046663969755172,-0.8245154023170471,0.5560752749443054,0.0464846491813659,0.3122776746749878,1.4205329418182373,-0.3944436035624013,-0.6718678146600077,0.5715166440414963,0.2576368185119063,0.9693452093090564,-2.955545930937375,1.633693360212114,6910,11.041010938207123,serve,serves_watch-right
2650,1761597270458868224,13.689868211746216,-8.018545150756836,7.877283573150635,-0.4952170550823211,-0.1406774371862411,-0.8666900992393494,0.4786003828048706,-0.0795221477746963,0.3714049458503723,1.438727617263794,-0.4425751587359239,-0.6669688726631965,0.5426349735804268,0.2546116492835547,1.0485284390710776,-2.8557092751022353,1.609593773274622,6920,11.251395591578815,serve,serves_watch-right
2660,1761597270468913408,13.699913263320925,-8.12214183807373,7.997530460357666,-0.5492027997970581,-0.1708486378192901,-0.9028971791267396,0.3944458365440368,-0.2119638472795486,0.458393394947052,1.4509674310684204,-0.4898890232325941,-0.6597422364859338,0.5118233033029972,0.2505710367558922,1.1264623290738869,-2.7328510647699513,1.5617032313693184,6930,11.411893147827898,serve,serves_watch-right
2670,1761597270478959360,13.709959268569946,-8.147628784179688,8.212603569030762,-0.6616749167442322,-0.1938850879669189,-0.9325759410858154,0.3044846057891845,-0.3324668407440185,0.4008985757827759,1.4716689586639404,-0.5362359273058394,-0.6506054826967762,0.4784922320986695,0.2453747870582302,1.201484358434206,-2.5745779550137153,1.4792284966884992,6940,11.587429649508067,serve,serves_watch-right
2680,1761597270489005312,13.72000527381897,-8.22307300567627,8.501968383789062,-0.939035952091217,-0.2079956531524658,-0.9553380012512208,0.2099218964576721,-0.4652221500873565,0.1371922492980957,1.5025262832641602,-0.5812119297375342,-0.6398033654220331,0.4422811302847357,0.2392316981095155,1.2708015376264168,-2.360803601099486,1.342641994613164,6950,11.865251138300884,serve,serves_watch-right
2690,1761597270499051264,13.730051279067991,-8.22346305847168,8.825246810913086,-1.2917838096618652,-0.2113052010536193,-0.9709903001785278,0.1119287759065628,-0.6912521719932556,-0.1799954175949096,1.503809094429016,-0.6246253735913975,-0.6277169557817189,0.4024124896168219,0.2321180725438312,1.3293380207395946,-2.0579221836422725,1.1199754933308743,6960,12.131736535157879,serve,serves_watch-right
2700,1761597270509097216,13.740097045898438,-8.047903060913086,9.106534957885742,-1.809115648269653,-0.2018392533063888,-0.979328989982605,0.0132669899612665,-0.9648630023002625,-0.4211228489875793,1.5886770486831665,-0.6655961217718616,-0.6147029920243697,0.3588505630222168,0.2243846526482448,1.3671169833486627,-1.6364323842026975,0.7815192481678263,6970,12.287010297296224,serve,serves_watch-right
2710,1761597270519143168,13.75014305114746,-7.705534934997559,9.341471672058104,-2.5381553173065186,-0.1773716211318969,-0.9807071089744568,-0.0821778252720832,-1.199673056602478,-0.72499680519104,1.6097503900527954,-0.7030040967410136,-0.6016008683584523,0.3114281358012172,0.2165047498592524,1.3740464052765309,-1.136930128442304,0.3678803184165655,6980,12.372574269290253,serve,serves_watch-right
2720,1761597270529189120,13.760189056396484,-7.108841896057129,9.594385147094728,-3.4278433322906494,-0.136018693447113,-0.9759926795959472,-0.1701086461544037,-1.454877853393555,-1.042180418968201,1.5700873136520386,-0.7357012403338148,-0.5893241372281197,0.2600821769115192,0.2092794517233089,1.3512332612269,-0.6744963576157588,-0.0063768921666482,6990,12.42328335685291,serve,serves_watch-right
2730,1761597270539234048,13.770234107971191,-6.439881324768066,9.746400833129885,-4.424440383911133,-0.0774508342146873,-0.965943455696106,-0.2468896359205246,-1.767367243766785,-1.334181547164917,1.538515567779541,-0.7629492466970229,-0.5784119750649083,0.2049262571330312,0.2033549092874069,1.3090651647765128,-0.3039834850332313,-0.286953758737369,7000,12.49160011319267,serve,serves_watch-right
2740,1761597270549280256,13.780280113220217,-5.158195972442627,9.809929847717283,-5.621402740478516,-0.0018284783000126,-0.951700747013092,-0.3070217370986938,-2.1032588481903076,-1.5122884511947632,1.4792782068252563,-0.783404592580595,-0.5701527161653304,0.1463386934582524,0.1994696546157877,1.2587286434602467,-0.0059554633795432,-0.4943059498146757,7010,12.427464668141976,serve,serves_watch-right
2750,1761597270559326208,13.790326118469238,-3.9197826385498047,9.84547233581543,-7.053781509399414,0.090473748743534,-0.9340460300445556,-0.3455033600330353,-2.4906506538391113,-1.6047570705413818,1.4584336280822754,-0.795660070199139,-0.5657396213806599,0.0847761409662032,0.1991903377423254,1.2055786236006274,0.2561101397797694,-0.6673818276042647,7020,12.730037510986701,serve,serves_watch-right
2760,1761597270569372160,13.800372123718262,-2.84442138671875,9.726819038391112,-8.642187118530273,0.1981404572725296,-0.9104622602462769,-0.3630411624908447,-2.8878376483917236,-1.6556235551834106,1.5408060550689695,-0.8000710955276491,-0.563998702963307,0.0196183155129235,0.2034867759148774,1.1444003515798746,0.4995972002458563,-0.8238430549658553,7030,13.318751436321701,serve,serves_watch-right
2770,1761597270579418112,13.810418128967283,-0.909953773021698,9.435636520385742,-10.36435604095459,0.3183774352073669,-0.8787615895271301,-0.3555471897125244,-3.222567558288574,-1.583762764930725,1.7523977756500244,-0.7948254954952925,-0.5656503996494563,-0.0476028730354749,0.2145366409840191,1.0732611569496584,0.7302998125114141,-0.9744841670151126,7040,14.045608871015364,serve,serves_watch-right
2780,1761597270589464064,13.820464134216309,1.708470106124878,8.779009819030762,-12.15975856781006,0.4464292228221893,-0.8364952802658081,-0.3177681565284729,-3.5789060592651367,-1.3503180742263794,1.9079475402832031,-0.7775364600367389,-0.5725243474223841,-0.1154633533009088,0.2330689340981639,0.9908558478507082,0.9521949342767748,-1.1259788814784748,7050,15.094688202596007,serve,serves_watch-right
2790,1761597270599509248,13.830509185791016,5.234076023101807,7.530330181121826,-14.316608428955078,0.5773767232894897,-0.7780816555023193,-0.2474368214607238,-3.945250988006592,-0.8248846530914307,1.9591219425201416,-0.7448563119930491,-0.5860992542924549,-0.1810228050167026,0.2625022901884614,0.891606120287831,1.1659197033472557,-1.2882046634359323,7060,17.001961691532866,serve,serves_watch-right
2800,1761597270609555200,13.84055519104004,7.534118175506592,5.323823928833008,-16.578540802001953,0.7049483060836792,-0.6915040612220764,-0.1577027738094329,-4.266716003417969,-0.1802305579185485,2.023028612136841,-0.6965940057672743,-0.6023823445596018,-0.2414210555402787,0.3059546648097502,0.7635691008643013,1.35071170333287,-1.4499907954383482,7070,18.972455113436354,serve,serves_watch-right
2810,1761597270619601152,13.850601196289062,9.299622535705566,2.6451609134674072,-18.93988800048828,0.8223015666007996,-0.5641865730285645,-0.0742544382810592,-4.468434810638428,0.5516591668128967,2.1973166465759277,-0.635718715007834,-0.613018649552358,-0.2950947599474817,0.3646765382302467,0.5994477374049558,1.4807398413535378,-1.5920681305899207,7080,21.264976205859686,serve,serves_watch-right
2820,1761597270629647360,13.860647201538086,11.472016334533691,-0.476894736289978,-20.213459014892575,0.9180757403373718,-0.3961175084114074,-0.0150876203551888,-4.552155017852783,0.9836572408676147,2.462170124053955,-0.5627331321760424,-0.6147341814089051,-0.3384642903534738,0.4368925704385826,0.4072846037904848,1.554363845107869,-1.7211624809283002,7090,23.24690329304208,serve,serves_watch-right
2830,1761597270639693312,13.87069320678711,14.329394340515137,-4.510890007019043,-20.526199340820312,0.9795427322387696,-0.2012351602315902,0.0006486941711045,-4.7921037673950195,1.044664740562439,2.130073308944702,-0.4780833069996548,-0.6066330818521006,-0.3637590563481818,0.5206841379849623,0.2026187116621774,1.5714585685151796,-1.85880345975954,7100,25.43628373407766,serve,serves_watch-right
2840,1761597270649739264,13.880739212036133,15.17201805114746,-9.039097785949709,-19.572004318237305,0.9986872673034668,-0.0058600413613021,-0.050884548574686,-5.246139049530029,1.9912726879119873,1.5121577978134155,-0.3892179789918135,-0.5833123742290981,-0.3664756471393822,0.6115157842737495,0.0058600748209632,1.5198889152914734,-2.0135366430889228,7110,26.362070737356824,serve,serves_watch-right
2850,1761597270659785216,13.890785217285156,15.907936096191406,-11.945443153381348,-16.789730072021484,0.9727075099945068,0.1594270467758178,-0.1685909926891327,-5.936712265014648,3.256237506866455,1.1520962715148926,-0.3040176293414939,-0.5422973933027723,-0.3487377826750271,0.7013335080226972,-0.1601102517558074,1.3991798829666815,-2.188690584899035,7120,26.03173215255791,serve,serves_watch-right
2860,1761597270669830400,13.900830268859863,15.929850578308104,-13.73649787902832,-12.801118850708008,0.9087033867836,0.2608051300048828,-0.3259429633617401,-6.532619953155518,3.188840866088867,0.9725799560546876,-0.2289408341001184,-0.4904701032184736,-0.3105923240188757,0.7813818186970976,-0.263856093000743,1.2264007775811985,-2.3853386681880666,7130,24.62356914132727,serve,serves_watch-right
2870,1761597270679876352,13.910876274108888,14.952279090881348,-13.54775619506836,-8.492441177368164,0.8225226402282715,0.290141224861145,-0.48915696144104,-7.224179744720459,3.287785291671753,0.4796049892902374,-0.169094876734446,-0.4344227949837896,-0.2582602348545111,0.8461592046217103,-0.2943743937666002,1.0342805314008114,-2.5788596561248793,7140,21.891411674071616,serve,serves_watch-right
2880,1761597270689922304,13.92092227935791,13.387261390686035,-12.225970268249512,-3.754948854446411,0.7323476672172546,0.2583017349243164,-0.6300373673439026,-7.580583572387695,3.657790184020996,-0.6982096433639526,-0.1277945811087331,-0.3812700681939179,-0.1990338075248109,0.8936929718517194,-0.2612638648664986,0.8603539285596153,-2.737108274108494,7150,18.514663308906876,serve,serves_watch-right
2890,1761597270699968000,13.930968046188354,10.660242080688477,-9.931724548339844,0.5894507765769958,0.6515480279922485,0.1861556321382522,-0.7354123592376709,-6.9622015953063965,3.124345541000366,-1.890686273574829,-0.1090911279613832,-0.3356190637404181,-0.1401915758759757,0.9250975162137292,-0.1872479239150804,0.7250054431103802,-2.8356347469912904,7160,14.581747698440845,serve,serves_watch-right
2900,1761597270710014208,13.941014051437378,9.7364501953125,-9.530086517333984,2.7145423889160156,0.5841562747955322,0.096169926226139,-0.8059235215187073,-5.317539691925049,3.256048679351806,-2.1231689453125,-0.1056328628473944,-0.299841786962398,-0.0844579010431892,0.9443534368150988,-0.0963187862989165,0.6271957371025141,-2.8875463345179817,7170,13.89207514430057,serve,serves_watch-right
2910,1761597270720060160,13.9510600566864,8.221421241760254,-10.59565544128418,3.792204618453979,0.4983978271484375,0.0021241423673927,-0.8669458031654358,-4.171966552734375,4.30607271194458,-3.5258002281188965,-0.1120069632293821,-0.2560595937733906,-0.0309931155880306,0.9596495262956594,-0.0021241439736986,0.5217510369810747,-2.9086439197674223,7180,13.937018954321095,serve,serves_watch-right
2920,1761597270730105088,13.961105108261108,8.625922203063965,-10.484869956970217,3.6179022789001465,0.4037661850452423,-0.0865488350391388,-0.9107590913772584,-2.29146146774292,3.976807594299317,-2.9087905883789062,-0.1207595947928538,-0.210431189504623,0.0184163021745949,0.9699467121721476,0.0866572515980838,0.4172927341704598,-2.9122235524922964,7190,14.050916296368696,serve,serves_watch-right
2930,1761597270740151040,13.971151113510132,14.803879737854004,-12.136245727539062,5.465430736541748,0.2914150059223175,-0.2087227255105972,-0.9335481524467468,0.4522984027862549,3.2875497341156006,2.1641695499420166,-0.1286404863220026,-0.1608028821726791,0.0858391529379404,0.974795255589218,0.210268731453156,0.302573724229166,-2.9113473500489544,7200,19.907642974194353,serve,serves_watch-right
2940,1761597270750197248,13.981197118759155,20.874652862548828,-10.192866325378418,6.410691261291504,0.1682044863700866,-0.3907158076763153,-0.9050129055976868,1.1829612255096436,4.076064109802246,2.9074087142944336,-0.1389437144649832,-0.1137929108269197,0.1858620647983203,0.966023376166078,0.4014090954122431,0.1837618850541607,-2.8933772096011534,7210,24.098602003156753,serve,serves_watch-right
2950,1761597270760242944,13.9912428855896,21.449203491210938,-8.81044864654541,6.546652793884277,0.0544809252023696,-0.5837885737419128,-0.8100757598876953,-0.152610182762146,4.0977044105529785,3.1854419708251953,-0.1477289748838766,-0.0759323774822082,0.2986576337599659,0.93979474423281,0.6233871783273651,0.0671529855871423,-2.8514024982567383,7220,24.094625927049837,serve,serves_watch-right
2960,1761597270770288896,14.001288890838625,17.979618072509766,-6.318442344665527,9.361672401428224,-0.0555216260254383,-0.7336119413375854,-0.6772966980934143,-3.410145998001098,4.0057220458984375,3.362980842590332,-0.1639827067320231,-0.0418983845436891,0.3994949030243803,0.900976090061688,0.8236218511258956,-0.0817924514530619,-2.7457808100187657,7230,21.232764536156026,serve,serves_watch-right
2970,1761597270780334848,14.011334896087646,12.106602668762209,-1.8992891311645508,10.715556144714355,-0.1612081825733184,-0.8146845102310181,-0.5570467710494995,-4.553742408752441,2.5286431312561035,2.159250259399414,-0.1984834961414041,-0.0148400573168247,0.4703789934707971,0.8597253417461953,0.9521849226203616,-0.2817019870626458,-2.5418370546590063,7240,16.278828915913014,serve,serves_watch-right
