time,seconds_elapsed,rotationRateX,rotationRateY,rotationRateZ,gravityX,gravityY,gravityZ,accelerationX,accelerationY,accelerationZ,quaternionW,quaternionX,quaternionY,quaternionZ,pitch,roll,yaw
24184,0.01365600,0.00000000,0.00000000,0.00000000,0.00185404,0.00074995,0.99999790,0.01987447,0.00803911,-0.03051549,0.00000009,0.00092702,0.00037497,0.99999942,-0.00185404,0.00074995,3.14159178
56976,0.04644800,-0.08140429,0.10818377,0.13616232,0.00375313,0.00130258,0.99999217,0.05752617,0.01700797,-0.02147651,-0.00001199,0.00187656,0.00065131,0.99999799,-0.00375313,0.00130259,3.14161419
89676,0.07914800,-0.08353599,0.21037213,0.03464012,0.00192157,0.00217028,0.99999561,-0.02291766,0.01125745,-0.01293510,-0.00001360,0.00096077,0.00108515,0.99999885,-0.00192157,0.00217029,3.14161777
122392,0.11186400,-0.10951609,0.27312402,0.12656967,0.00004545,0.00296139,0.99999551,-0.02226225,0.00997807,0.02417439,-0.00002320,0.00002269,0.00148070,0.99999885,-0.00004545,0.00296139,3.14163899
155152,0.14462399,-0.14428943,0.21130475,0.11231393,-0.00198588,0.00308411,0.99999322,-0.03170552,0.00228698,-0.03099906,-0.00003165,-0.00099299,0.00154203,0.99999828,0.00198589,0.00308412,3.14165902
187984,0.17745600,-0.19851453,0.26872742,0.07620828,-0.00398906,0.00263386,0.99998836,-0.04483907,-0.00946980,0.00904489,-0.00003664,-0.00199458,0.00131686,0.99999704,0.00398907,0.00263389,3.14167118
220808,0.21027998,-0.06848086,0.23262174,0.04489892,-0.00598340,0.00219459,0.99997978,-0.04284472,-0.00927467,0.02663159,-0.00003884,-0.00299176,0.00109719,0.99999494,0.00598343,0.00219463,3.14167690
253632,0.24310400,-0.01985145,0.17186830,0.04116845,-0.00797466,0.00180002,0.99996652,-0.08211324,-0.01644846,-0.02096260,-0.00004068,-0.00398740,0.00089985,0.99999160,0.00797474,0.00180008,3.14168119
286432,0.27590398,0.02384839,0.10791730,0.09712558,-0.00991136,0.00123766,0.99995002,-0.11020584,-0.03248766,0.01933706,-0.00004728,-0.00495577,0.00061860,0.99998750,0.00991152,0.00123772,3.14169335
319232,0.30870399,0.02717917,0.13935987,0.17533230,-0.01145387,-0.00005900,0.99993438,-0.02663206,-0.02362264,-0.07854772,-0.00005886,-0.00572703,-0.00002984,0.99998359,0.01145412,-0.00005901,3.14171004
352016,0.34148800,-0.09632619,0.14775345,0.03690505,-0.01033656,-0.00171679,0.99994487,0.00935999,-0.01415235,0.04668593,-0.00005741,-0.00516830,-0.00085870,0.99998617,0.01033674,-0.00171688,3.14169859
384808,0.37427999,0.01985145,0.07301073,-0.01598775,-0.01224397,-0.00235299,0.99992198,-0.07369353,-0.02474662,0.07795882,-0.00005517,-0.00612204,-0.00117685,0.99998044,0.01224428,-0.00235317,3.14168858
417672,0.40714402,0.14735375,0.14535528,0.04689740,-0.01420820,-0.00281646,0.99989500,-0.05268633,-0.01329682,0.04209721,-0.00005880,-0.00710420,-0.00140868,0.99997367,0.01420868,-0.00281675,3.14169025
450448,0.43991999,0.18066156,0.19025421,-0.01132465,-0.01622329,-0.00251982,0.99986515,-0.02161851,0.00276396,0.02113098,-0.00005997,-0.00811184,-0.00126044,0.99996623,0.01622400,-0.00252015,3.14169216
483280,0.47275199,0.21103830,0.19345174,-0.01252374,-0.01821138,-0.00206070,0.99983177,-0.05527495,0.01207046,-0.02668721,-0.00006176,-0.00910601,-0.00103096,0.99995784,0.01821239,-0.00206104,3.14169740
516120,0.50559196,0.19904747,0.25327258,-0.06062021,-0.01969577,-0.00063891,0.99980564,-0.01057767,0.01064868,-0.02324313,-0.00006327,-0.00984834,-0.00032010,0.99995136,0.01969705,-0.00063904,3.14171290
548980,0.53845205,0.08993109,0.07221133,-0.12696938,-0.02168971,-0.00035745,0.99976444,-0.05277318,0.00719339,-0.03638553,-0.00005372,-0.01084548,-0.00017932,0.99994106,0.02169141,-0.00035753,3.14169621
581824,0.57129597,0.02637979,-0.01572129,-0.14322358,-0.02367338,-0.00057696,0.99971942,-0.07422702,-0.00845624,-0.04927993,-0.00004017,-0.01183751,-0.00028898,0.99992980,0.02367560,-0.00057713,3.14166617
614720,0.60419201,-0.06754824,-0.14748697,-0.10192190,-0.02564280,-0.00046907,0.99967079,-0.10692557,0.00657259,-0.06485635,-0.00003238,-0.01282245,-0.00023497,0.99991760,0.02564562,-0.00046922,3.14165139
647644,0.63711600,-0.10538592,-0.42953753,-0.02278254,-0.02754465,-0.00078204,0.99962015,-0.10819754,-0.01606366,0.00453025,-0.00002879,-0.01377362,-0.00039146,0.99990501,0.02754814,-0.00078234,3.14163947
680576,0.67004799,-0.06475038,-0.31389281,0.04196784,-0.02944344,-0.00121419,0.99956531,-0.05283195,-0.01148113,-0.02422351,-0.00003008,-0.01472331,-0.00060760,0.99989118,0.02944771,-0.00121471,3.14163494
713452,0.70292401,-0.09752527,-0.07607503,0.00999234,-0.03132341,-0.00187048,0.99950733,-0.03581526,-0.01180140,0.03003365,-0.00002698,-0.01566361,-0.00093578,0.99987678,0.03132854,-0.00187140,3.14161729
746300,0.73577203,-0.08966463,-0.05462480,0.04849617,-0.03331025,-0.00196445,0.99944295,-0.04359404,-0.00169766,-0.00627893,-0.00003167,-0.01665742,-0.00098289,0.99986066,0.03331642,-0.00196554,3.14162325
779184,0.76865601,-0.13163245,-0.01265697,0.01305666,-0.03137502,-0.00249309,0.99950447,0.02405080,-0.00629598,0.00318110,-0.00002784,-0.01568942,-0.00124713,0.99987611,0.03138017,-0.00249432,3.14160919
812012,0.80148401,-0.04783001,-0.07620828,-0.01678714,-0.03297586,-0.00367977,0.99944915,-0.03416280,-0.02317570,0.08429104,-0.00001824,-0.01649017,-0.00184044,0.99986228,0.03298185,-0.00368178,3.14156842
844836,0.83430805,0.02691271,-0.06062021,0.05036140,-0.03477060,-0.00453068,0.99938468,-0.03578604,-0.01646542,0.04065436,-0.00001717,-0.01738794,-0.00226599,0.99984607,0.03477762,-0.00453343,3.14154815
877668,0.86714000,0.03996937,0.05009494,0.03144257,-0.03526704,-0.00646274,0.99935674,-0.00818999,-0.02747281,0.03799677,-0.00000343,-0.01763635,-0.00323195,0.99983911,0.03527437,-0.00646681,3.14148545
910436,0.89990797,0.09366157,-0.07647473,0.07714089,-0.03601313,-0.00829526,0.99931678,-0.00866460,-0.01807192,0.03754842,0.00000507,-0.01800966,-0.00414825,0.99982919,0.03602092,-0.00830075,3.14143300
943220,0.93269195,0.11324656,-0.22369525,0.05355895,-0.03672092,-0.01012946,0.99927396,-0.00234158,-0.00671624,-0.01221341,0.00001558,-0.01836388,-0.00506537,0.99981842,0.03672919,-0.01013648,3.14137530
976084,0.96555604,0.05249311,-0.16973661,0.06448392,-0.03841967,-0.01112078,0.99919958,-0.00406080,-0.00279524,-0.04070347,0.00001473,-0.01921376,-0.00556122,0.99979982,0.03842913,-0.01112923,3.14134931
1008940,0.99841203,-0.01718683,0.06435069,0.02784533,-0.03646188,-0.01145962,0.99926939,0.03377633,-0.00563022,-0.00610530,0.00002103,-0.01823439,-0.00573048,0.99981727,0.03646996,-0.01146750,3.14134144
1041876,1.03134799,-0.01878561,0.03890352,0.00146554,-0.03557711,-0.00967407,0.99932012,0.00286227,0.00552368,-0.00322634,0.00000705,-0.01779161,-0.00483773,0.99983005,0.03558462,-0.00968034,3.14140629
1074820,1.06429195,-0.03330781,0.05888820,-0.01452220,-0.03359416,-0.00981415,0.99938735,0.01992229,-0.00141632,0.00744861,0.00001437,-0.01679973,-0.00490758,0.99984683,0.03360049,-0.00981985,3.14139890
1107724,1.09719598,-0.02664625,0.11417918,0.01079173,-0.03374520,-0.01181408,0.99936046,-0.00165519,-0.01064686,0.02944809,0.00002978,-0.01687547,-0.00590748,0.99984006,0.03375161,-0.01182109,3.14133358
1140632,1.13010394,0.02184992,0.08153753,-0.00452986,-0.03176369,-0.01190373,0.99942455,0.01589455,-0.00103572,0.02205986,0.00003696,-0.01588435,-0.00595213,0.99985609,0.03176903,-0.01191002,3.14132952
1173480,1.16295194,0.05235988,0.07087903,-0.04396631,-0.03265380,-0.01369040,0.99937248,-0.00640870,-0.01292092,0.00380135,0.00005260,-0.01632982,-0.00684542,0.99984302,0.03265962,-0.01369814,3.14126372
1206344,1.19581604,0.02331547,0.07980552,-0.01318989,-0.03454805,-0.01435992,0.99929962,-0.02868437,-0.01029828,0.00655973,0.00005295,-0.01727744,-0.00718030,0.99982481,0.03455494,-0.01436899,3.14123845
1239228,1.22870004,0.04756355,0.07634150,-0.00759418,-0.03619915,-0.01549460,0.99922428,-0.01653523,-0.01136087,0.01933044,0.00005758,-0.01810354,-0.00774776,0.99980602,0.03620707,-0.01550539,3.14119672
1272084,1.26155602,0.02078407,0.06834763,0.01025880,-0.03780209,-0.01669775,0.99914569,-0.01151431,-0.00893702,-0.01647967,0.00006154,-0.01890560,-0.00834949,0.99978637,0.03781110,-0.01671047,3.14115357
1305000,1.29447197,0.00786064,0.07807350,-0.02158346,-0.03961898,-0.01755300,0.99906044,-0.01238297,-0.00588450,0.00289267,0.00006416,-0.01981471,-0.00877729,0.99976501,0.03962936,-0.01756770,3.14111614
1337916,1.32738804,-0.00612864,0.14189126,0.03623890,-0.04163919,-0.01762383,0.99897689,-0.02281393,-0.00093086,0.00712657,0.00005310,-0.02082540,-0.00881306,0.99974412,0.04165124,-0.01764005,3.14111900
1370832,1.36030399,0.01692037,0.13869371,0.00559571,-0.04364476,-0.01786234,0.99888725,-0.01446070,-0.00191305,0.01087832,0.00004651,-0.02182887,-0.00893264,0.99972171,0.04365864,-0.01788033,3.14110922
1403676,1.39314794,0.01279020,0.02997703,0.01358959,-0.04561064,-0.01823179,0.99879302,-0.03812959,-0.00740298,0.01585543,0.00004062,-0.02281258,-0.00911772,0.99969825,0.04562647,-0.01825179,3.14109492
1436568,1.42604007,0.03783767,0.02717917,0.02917764,-0.04741529,-0.01908553,0.99869270,-0.03681322,-0.01753557,0.01912958,0.00003986,-0.02371578,-0.00954494,0.99967308,0.04743309,-0.01910819,3.14105963
1469452,1.45892405,0.03477335,0.05182695,0.05049464,-0.04902966,-0.02026354,0.99859151,-0.01737659,-0.01293958,-0.00762469,0.00004184,-0.02452389,-0.01013431,0.99964771,0.04904934,-0.02028934,3.14101123
1502332,1.49180402,0.01065850,0.05329250,0.03717151,-0.05091751,-0.02093088,0.99848327,-0.03306686,-0.01178397,-0.00458676,0.00003742,-0.02546881,-0.01046846,0.99962062,0.05093955,-0.02095960,3.14098381
1535196,1.52466797,0.01638744,0.02078407,0.05275957,-0.05275244,-0.02171619,0.99837150,-0.01536279,-0.00660413,0.01652110,0.00003335,-0.02638733,-0.01086163,0.99959278,0.05277694,-0.02174818,3.14095187
1568060,1.55753192,0.02931087,0.01252374,0.05009494,-0.05461888,-0.02099593,0.99828634,-0.01740260,0.00634749,0.00684065,0.00000941,-0.02732125,-0.01050221,0.99957141,0.05464609,-0.02102887,3.14099907
1600964,1.59043598,0.01398928,0.03224196,0.04689740,-0.05265754,-0.02132613,0.99838447,0.00138801,-0.00015824,-0.00253487,0.00002018,-0.02633963,-0.01066684,0.99959592,0.05268192,-0.02135739,3.14098954
1633856,1.62332797,0.01279020,0.01305666,0.01545482,-0.05456822,-0.02073899,0.99829454,-0.00549037,0.00145188,0.00585586,0.00000116,-0.02729577,-0.01037388,0.99957351,0.05459534,-0.02077143,3.14102315
1666732,1.65620398,0.02877795,0.02837825,0.02558040,-0.05588088,-0.02223975,0.99818954,-0.01199020,-0.01316064,0.01474994,0.00001274,-0.02795324,-0.01112456,0.99954719,0.05591002,-0.02227641,3.14094424
1699612,1.68908405,0.01532159,0.02398162,0.00919296,-0.05778861,-0.02282607,0.99806747,-0.01447701,-0.00451768,0.00583875,0.00000953,-0.02890839,-0.01141828,0.99951667,0.05782084,-0.02286628,3.14091229
1732464,1.72193598,0.02171669,0.00799387,0.03184226,-0.05961428,-0.02362245,0.99794197,-0.01240720,-0.00543029,0.00669670,0.00000811,-0.02982258,-0.01181706,0.99948539,0.05964965,-0.02366674,3.14087033
1765284,1.75475597,0.02704594,0.00826034,0.02664625,-0.06128015,-0.02471180,0.99781446,-0.01269446,-0.00824718,0.00584763,0.00001232,-0.03065699,-0.01236228,0.99945344,0.06131858,-0.02476087,3.14080858
1798120,1.78759202,0.02904441,0.00546248,0.03877029,-0.06299239,-0.02572466,0.99768266,-0.00512285,-0.00283980,0.01794237,0.00001413,-0.03151464,-0.01286934,0.99942054,0.06303412,-0.02577870,3.14075160
1830928,1.82040004,0.03304135,-0.01652067,0.05955436,-0.06489272,-0.02630230,0.99754543,-0.01835924,-0.00568013,0.00489599,0.00000586,-0.03246636,-0.01315903,0.99938611,0.06493836,-0.02636091,3.14072465
1863768,1.85324001,0.03970291,-0.00772741,0.06781470,-0.06290328,-0.02618376,0.99767599,0.04019820,0.00201384,0.01233375,0.00001128,-0.03147008,-0.01309914,0.99941883,0.06294485,-0.02623874,3.14074397
1896620,1.88609199,0.03890352,-0.03317458,0.02904441,-0.06135573,-0.02491594,0.99780483,0.00154128,0.00099016,-0.01050013,-0.00000083,-0.03069471,-0.01246484,0.99945106,0.06139430,-0.02496556,3.14082765
1929500,1.91897201,0.02651302,-0.04649770,0.02145023,-0.05935898,-0.02479052,0.99792852,0.01321641,0.00062059,0.00915152,0.00000774,-0.02969498,-0.01240145,0.99948196,0.05939392,-0.02483687,3.14083933
1962392,1.95186405,0.02238285,-0.07487596,0.01452220,-0.05762364,-0.02378550,0.99805469,0.00488927,0.00278940,-0.00537896,0.00000234,-0.02882587,-0.01189847,0.99951353,0.05765559,-0.02382735,3.14090085
1995260,1.98473205,0.00652833,-0.03490658,-0.06888055,-0.05611539,-0.02247454,0.99817123,0.01387906,0.01246477,0.01427996,-0.00000153,-0.02807052,-0.01124245,0.99954261,0.05614490,-0.02251191,3.14096355
2028168,2.01764011,0.04476570,-0.07194488,-0.08340275,-0.05809096,-0.02260490,0.99805517,-0.02613756,-0.00229745,0.02464992,-0.00000352,-0.02905957,-0.01130805,0.99951362,0.05812369,-0.02264507,3.14094138
2061056,2.05052804,0.03437366,-0.10765085,-0.03317458,-0.06000210,-0.02309258,0.99793090,-0.01739048,-0.00449531,0.00524288,-0.00000434,-0.03001653,-0.01155240,0.99948253,0.06003818,-0.02313633,3.14090657
2093948,2.08342003,0.02424809,-0.08646708,-0.04902909,-0.06079749,-0.02491249,0.99783916,-0.00194665,-0.00536095,-0.00931376,0.00002251,-0.03041546,-0.01246230,0.99945964,0.06083501,-0.02496126,3.14078807
2126820,2.11629199,-0.01612098,-0.10978255,-0.02025115,-0.06219054,-0.02632095,0.99771709,-0.02325868,-0.02323960,-0.00528544,0.00003684,-0.03111352,-0.01316684,0.99942913,0.06223070,-0.02637505,3.14069795
2159748,2.14921998,0.01705360,-0.10738439,0.02451455,-0.06355186,-0.02775438,0.99759235,-0.02458291,-0.02473585,0.01974160,0.00004773,-0.03179574,-0.01388403,0.99939785,0.06359473,-0.02781419,3.14061236
2192664,2.18213605,0.01465544,-0.14468913,0.07500919,-0.06167538,-0.02849473,0.99768934,0.00869686,-0.00226699,-0.02283585,0.00006585,-0.03085646,-0.01425357,0.99942216,0.06171456,-0.02855296,3.14057946
2225580,2.21505188,-0.02278254,-0.08966463,0.06528330,-0.05968684,-0.02822672,0.99781789,0.03869075,0.00527750,0.00486761,0.00006985,-0.02986070,-0.01411898,0.99945430,0.05972235,-0.02828090,3.14060807
2258492,2.24796390,-0.03077642,-0.07740735,0.06408423,-0.05773451,-0.02777606,0.99794530,0.04772474,0.01117449,0.00596094,0.00007095,-0.02888308,-0.01389312,0.99948616,0.05776664,-0.02782606,3.14064669
2291364,2.28083610,-0.04609801,-0.01252374,0.01252374,-0.05583405,-0.02717969,0.99806995,0.05925202,0.01887891,0.00290656,0.00007424,-0.02793152,-0.01359433,0.99951734,0.05586311,-0.02722552,3.14068341
2324228,2.31369996,-0.01745329,0.00999234,-0.00572894,-0.05733751,-0.02849241,0.99794778,-0.00272109,-0.00153689,0.03867328,0.00008273,-0.02868465,-0.01425115,0.99948673,0.05736898,-0.02854325,3.14060807
2357104,2.34657597,0.04476570,0.12110720,0.03503981,-0.05630878,-0.03018641,0.99795684,0.01163105,-0.02328039,0.03671109,0.00011184,-0.02817047,-0.01509777,0.99948902,0.05633859,-0.03023899,3.14051675
2389908,2.37937998,0.07381011,0.19651605,0.05529096,-0.05699978,-0.03205731,0.99785938,-0.00965060,-0.02336261,0.03265816,0.00012894,-0.02851723,-0.01603356,0.99946470,0.05703070,-0.03211504,3.14041852
2422736,2.41220808,0.08300307,0.33374426,0.06141960,-0.05583646,-0.03362547,0.99787349,0.02190091,-0.02716555,-0.01056880,0.00015677,-0.02793572,-0.01681730,0.99946823,0.05586552,-0.03368438,3.14033770
2455532,2.44500398,0.05009494,0.47057275,0.03290811,-0.05774434,-0.03441158,0.99773797,-0.02062480,-0.00880131,-0.02581418,0.00015033,-0.02889110,-0.01721118,0.99943428,0.05777649,-0.03447592,3.14029550
2488348,2.47781991,-0.02558040,0.36705207,0.03583920,-0.05977391,-0.03407599,0.99763002,-0.04471828,0.00941779,-0.04011047,0.00012597,-0.02990683,-0.01704433,0.99940729,0.05980957,-0.03414366,3.14031910
2521204,2.51067590,-0.05715620,0.22409496,0.09006432,-0.06171805,-0.03348985,0.99753150,-0.05620188,0.01493517,0.04739034,0.00009308,-0.03087965,-0.01675240,0.99938268,0.06175730,-0.03356013,3.14036965
2554036,2.54350805,0.05022818,0.15334916,0.10005666,-0.06294996,-0.03188386,0.99750728,-0.02176684,0.02602448,0.02422118,0.00005002,-0.03149540,-0.01595030,0.99937667,0.06299161,-0.03195266,3.14048576
2586848,2.57631993,0.03996937,0.14855283,0.07207810,-0.06486001,-0.03121936,0.99740591,-0.04720053,0.01632679,-0.00009143,0.00001866,-0.03245135,-0.01561921,0.99935131,0.06490558,-0.03129035,3.14053940
2619736,2.60920810,0.05582389,0.00359724,0.12124042,-0.06638946,-0.02992096,0.99734477,-0.00612031,0.00282135,0.02682519,-0.00002454,-0.03321642,-0.01497124,0.99933586,0.06643834,-0.02999162,3.14064502
2652596,2.64206790,0.07434303,-0.18372588,0.10178867,-0.06738806,-0.03161253,0.99722566,-0.01586389,-0.02673708,-0.00821203,-0.00001279,-0.03371722,-0.01581767,0.99930610,0.06743919,-0.03168987,3.14054918
2685536,2.67500805,0.04636447,-0.08686677,0.11324656,-0.06789033,-0.03353024,0.99712924,-0.00925811,-0.04117679,-0.03252965,0.00000569,-0.03396965,-0.01677698,0.99928207,0.06794259,-0.03361412,3.14043879
2718428,2.70790004,-0.07074579,0.03877029,0.09326187,-0.06690775,-0.03527927,0.99713497,0.02076517,-0.02795315,-0.05524039,0.00003528,-0.03347849,-0.01765110,0.99928340,0.06695779,-0.03536588,3.14033746
2751292,2.74076390,-0.09566003,-0.08886525,0.05755590,-0.06491563,-0.03554363,0.99725742,0.01999375,-0.00254231,0.00225431,0.00005133,-0.03248101,-0.01778235,0.99931411,0.06496131,-0.03562630,3.14033222
2784144,2.77361607,-0.07953906,-0.21183767,0.01625421,-0.06289096,-0.03544085,0.99739065,0.05922885,0.00297014,0.02018744,0.00006527,-0.03146718,-0.01772994,0.99934740,0.06293251,-0.03551861,3.14034390
2817044,2.80651588,-0.08326952,-0.08353599,-0.08606738,-0.06092171,-0.03507594,0.99752597,0.08973031,0.01798610,-0.01559240,0.00008368,-0.03048118,-0.01754628,0.99938125,0.06095945,-0.03514846,3.14035344
2849936,2.83940792,-0.15428178,-0.10884993,-0.23088974,-0.05943291,-0.03376094,0.99766092,0.04380791,0.03888790,-0.05723125,0.00009570,-0.02973547,-0.01688750,0.99941501,0.05946797,-0.03382719,3.14039492
2882880,2.87235183,-0.25473811,-0.08340275,-0.28511486,-0.06026893,-0.03561043,0.99754657,-0.00467248,-0.01248528,-0.03001732,0.00013939,-0.03015545,-0.01781194,0.99938640,0.06030548,-0.03568285,3.14023733
2915860,2.90533208,-0.21316998,0.03597244,-0.32002143,-0.06149153,-0.03722595,0.99741268,-0.04446550,-0.05530334,0.04604435,0.00017962,-0.03076902,-0.01861950,0.99935283,0.06153038,-0.03730520,3.14008498
2948780,2.93825197,-0.18226033,0.19651605,-0.15947778,-0.06340915,-0.03789860,0.99726762,-0.18195218,-0.06293148,0.06205851,0.00018558,-0.03172978,-0.01895637,0.99931659,0.06345173,-0.03798416,3.14001560
2981684,2.97115592,-0.09979021,0.13336446,0.04743032,-0.06533051,-0.03851214,0.99712028,-0.06723785,-0.02154645,0.01801646,0.00017288,-0.03269213,-0.01926429,0.99927978,0.06537708,-0.03860418,3.13998413
3014560,3.00403189,-0.09392803,-0.07580858,0.07913936,-0.06690999,-0.03732018,0.99706077,-0.02268962,0.01754479,-0.00462914,0.00013060,-0.03348205,-0.01866944,0.99926490,0.06696003,-0.03741273,3.14007806
3047412,3.03688406,-0.14309035,-0.20251147,0.05742266,-0.06557171,-0.03584082,0.99720382,0.02284709,0.02461036,-0.04310226,0.00011180,-0.03281080,-0.01792928,0.99930067,0.06561880,-0.03592586,3.14018964
3080284,3.06975603,-0.20597550,0.01692037,0.03317458,-0.06361685,-0.03625123,0.99731559,0.01454458,-0.00183471,-0.01806754,0.00013210,-0.03183219,-0.01813358,0.99932861,0.06365985,-0.03633280,3.14017128
3113160,3.10263204,-0.22116384,0.24487903,-0.02131700,-0.06208772,-0.03752455,0.99736480,0.03938263,-0.03278795,0.02363133,0.00016759,-0.03106748,-0.01876944,0.99934091,0.06212769,-0.03760595,3.14008855
3146052,3.13552403,-0.19025421,0.16307504,-0.04916233,-0.06142470,-0.03943453,0.99733219,0.02211806,-0.07116117,0.05320489,0.00020733,-0.03073694,-0.01972405,0.99933280,0.06146339,-0.03951942,3.13996267
3178940,3.16841197,-0.09099694,0.02398162,-0.05742266,-0.06096351,-0.04139489,0.99728097,0.02898109,-0.13756018,0.05179125,0.00024650,-0.03050761,-0.02070400,0.99931993,0.06100135,-0.04148393,3.13983345
3211828,3.20129990,0.12070751,0.22076418,-0.08380245,-0.06086000,-0.04336687,0.99720373,0.00495179,-0.12679913,0.05894858,0.00028645,-0.03045751,-0.02168988,0.99930067,0.06089764,-0.04346109,3.13969540
3244660,3.23413205,-0.24514546,0.59461107,-0.10511945,-0.06017482,-0.04524830,0.99716167,0.08483303,-0.13224194,-0.35433940,0.00033259,-0.03011632,-0.02263020,0.99929008,0.06021121,-0.04534599,3.13956117
3277532,3.26700401,-0.48549466,0.27192494,-0.29697241,-0.06083976,-0.04722910,0.99702920,-0.06367197,-0.17493885,0.12943565,0.00037922,-0.03045147,-0.02362056,0.99925689,0.06087737,-0.04733444,3.13939213
3310388,3.29986000,-0.10165544,-0.16587288,-0.14908576,-0.06213107,-0.04873401,0.99687709,-0.12048611,-0.13193005,0.15082794,0.00039849,-0.03109955,-0.02437365,0.99921884,0.06217114,-0.04884778,3.13927578
3343200,3.33267211,0.01665390,-0.15827871,0.00000000,-0.06383497,-0.04970721,0.99672174,-0.17884081,-0.10190412,0.06382513,0.00039232,-0.03195343,-0.02486146,0.99918003,0.06387841,-0.04982942,3.13921499
3375988,3.36545991,0.07687443,0.02331547,0.16800460,-0.06553038,-0.05073678,0.99655971,-0.12026064,-0.07426322,-0.02243865,0.00037351,-0.03280289,-0.02537797,0.99913949,0.06557738,-0.05086801,3.13917613
3408824,3.39829611,0.00945942,0.26726186,0.11737672,-0.06629978,-0.05258781,0.99641284,-0.00938382,-0.03115242,-0.06135422,0.00038512,-0.03318980,-0.02630473,0.99910268,0.06634846,-0.05272822,3.13907146
3441604,3.43107604,-0.12856814,0.25527107,0.07447627,-0.06607837,-0.05458750,0.99631986,0.00284594,-0.01938710,-0.00339997,0.00041525,-0.03308098,-0.02730515,0.99907941,0.06612657,-0.05473441,3.13895058
3474416,3.46388792,-0.06195252,0.14548850,0.05609035,-0.06693109,-0.05640528,0.99616184,-0.03365485,-0.07103612,0.02263701,0.00042913,-0.03350982,-0.02821535,0.99903984,0.06698117,-0.05656221,3.13883805
3507260,3.49673199,-0.05609035,0.17733078,0.01891884,-0.06756546,-0.05830984,0.99600906,-0.03302047,-0.10379954,-0.00821608,0.00045087,-0.03382966,-0.02916879,0.99900159,0.06761700,-0.05847673,3.13871169
3540060,3.52953195,-0.02184992,0.15161715,-0.02637979,-0.06817078,-0.06021606,0.99585466,-0.03925110,-0.12191286,0.03344220,0.00047728,-0.03413516,-0.03012298,0.99896297,0.06822370,-0.06039318,3.13857555
3572896,3.56236791,0.04290046,-0.00199847,-0.01119142,-0.06958360,-0.06160013,0.99567232,-0.12426406,-0.12223776,-0.00031096,0.00048074,-0.03484434,-0.03081668,0.99891738,0.06963989,-0.06178913,3.13847708
3605736,3.59520792,0.06728178,-0.02558040,0.01665390,-0.07005768,-0.06351781,0.99551839,-0.03126068,-0.12227320,0.00765544,0.00050577,-0.03508424,-0.03177679,0.99887876,0.07011513,-0.06371740,3.13834452
3638588,3.62806010,0.05662327,-0.03717151,-0.00239816,-0.07117438,-0.06514203,0.99533443,-0.06725335,-0.09940876,-0.05221915,0.00051674,-0.03564564,-0.03259063,0.99883279,0.07123463,-0.06535419,3.13822841
3671520,3.66099190,-0.05928790,0.04796324,0.00546248,-0.07198559,-0.06696668,0.99515476,-0.03714527,-0.08366808,-0.00516456,0.00053545,-0.03605444,-0.03350465,0.99878778,0.07204792,-0.06719143,3.13809800
3704376,3.69384789,0.02864472,0.00972588,-0.03450689,-0.07300271,-0.06866390,0.99496517,-0.04369651,-0.07074040,0.03823793,0.00055215,-0.03656638,-0.03435504,0.99874029,0.07306771,-0.06890212,3.13796758
3737236,3.72670793,0.03557274,0.03264165,-0.06248545,-0.07351665,-0.07057735,0.99479322,-0.01535053,-0.06028203,-0.01701003,0.00058400,-0.03682693,-0.03531317,0.99869718,0.07358306,-0.07082807,3.13781499
3770080,3.75955200,0.02771210,0.05235988,-0.12816845,-0.07418140,-0.07244527,0.99460992,-0.02835766,-0.07623638,0.02516544,0.00061830,-0.03716323,-0.03624854,0.99865140,0.07424961,-0.07270948,3.13765263
3802924,3.79239606,0.13149923,-0.04330015,-0.12923430,-0.07521586,-0.07410616,0.99440965,-0.06467673,-0.10484893,-0.02541554,0.00064213,-0.03768445,-0.03708075,0.99860115,0.07528697,-0.07438527,3.13750386
3835764,3.82523612,-0.01558805,0.02411486,-0.08366923,-0.07644789,-0.07565958,0.99419851,-0.08859118,-0.11086387,0.02582103,0.00065585,-0.03830438,-0.03785963,0.99854831,0.07652257,-0.07595467,3.13737010
3868596,3.85806798,0.10765085,-0.09126340,-0.04716386,-0.07771567,-0.07714437,0.99398622,-0.07389566,-0.08569744,0.04409969,0.00066434,-0.03894208,-0.03860440,0.99849519,0.07779413,-0.07745582,3.13724613
3901424,3.89089603,0.11591118,-0.08393568,0.01692037,-0.07937135,-0.07818195,0.99377450,-0.09372436,-0.06000164,0.01013178,0.00065118,-0.03977311,-0.03912603,0.99844217,0.07945492,-0.07851003,3.13716602
3934264,3.92373609,0.13509647,-0.04623124,0.03344104,-0.08076399,-0.07955079,0.99355354,-0.04838640,-0.04813476,0.00424916,0.00064887,-0.04047312,-0.03981335,0.99838685,0.08085206,-0.07989648,3.13705945
3967112,3.95658397,0.11977488,0.01292343,0.01638744,-0.08228125,-0.08079586,0.99332838,-0.05443750,-0.04518070,-0.03678542,0.00064331,-0.04123548,-0.04043892,0.99833040,0.08237440,-0.08115986,3.13695740
3999896,3.98936796,0.06221899,0.05489127,0.00399694,-0.08320146,-0.08253833,0.99310855,-0.02837081,-0.05393628,0.00249690,0.00066115,-0.04169996,-0.04131284,0.99827537,0.08329777,-0.08292052,3.13681054
4032668,4.02214002,0.09619296,0.02837825,-0.00359724,-0.08406754,-0.08429936,0.99288768,-0.03189926,-0.06535885,-0.00240922,0.00068107,-0.04213750,-0.04219608,0.99822006,0.08416688,-0.08470009,3.13665938
4065432,4.05490398,0.08366923,-0.00039969,0.00146554,-0.08493068,-0.08606055,0.99266319,-0.03176854,-0.06457423,0.00074506,0.00070025,-0.04257368,-0.04307956,0.99816379,0.08503313,-0.08648038,3.13650822
4098212,4.08768415,0.08207044,0.02677948,0.00306432,-0.08569355,-0.08786952,0.99243907,-0.02514630,-0.05934728,0.00243402,0.00072281,-0.04295986,-0.04398694,0.99810771,0.08579879,-0.08830868,3.13635110
4130972,4.12044382,0.09406126,0.03184226,0.00186524,-0.08676517,-0.08951079,0.99219923,-0.03457273,-0.05331148,0.00267380,0.00073522,-0.04350046,-0.04481090,0.99804763,0.08687440,-0.08997097,3.13620615
4163764,4.15323591,0.09632619,0.04836294,0.01318989,-0.08782152,-0.09116219,0.99195575,-0.03083083,-0.04897453,-0.00416279,0.00074732,-0.04403352,-0.04564008,0.99798660,0.08793482,-0.09164404,3.13606023
4196580,4.18605184,0.10245482,0.06874732,0.01798622,-0.08909833,-0.09265189,0.99170379,-0.03272783,-0.03893991,0.00170439,0.00075074,-0.04467677,-0.04638873,0.99792346,0.08921668,-0.09315656,3.13592672
4229404,4.21887588,0.09805819,0.07527565,0.00439663,-0.09061235,-0.09390642,0.99144897,-0.03609663,-0.03060530,-0.00634152,0.00074454,-0.04543844,-0.04702002,0.99785966,0.09073682,-0.09443463,3.13580989
4262236,4.25170803,0.08486831,0.04449923,0.03810414,-0.09233809,-0.09485319,0.99119930,-0.04877520,-0.02648471,-0.02708793,0.00072310,-0.04630539,-0.04749774,0.99779710,0.09246983,-0.09540485,3.13572573
4295068,4.28454017,0.02038438,0.06741500,0.04303369,-0.09405313,-0.09583448,0.99094390,-0.04022422,-0.02281787,-0.01755524,0.00070213,-0.04716718,-0.04799291,0.99773321,0.09419236,-0.09641046,3.13563776
4327936,4.31740808,0.02198316,0.04596477,0.06355130,-0.09580647,-0.09673895,0.99068775,-0.06483807,-0.03509699,0.01810134,0.00067631,-0.04804800,-0.04844992,0.99766893,0.09595367,-0.09733967,3.13555955
4360764,4.35023593,0.04409954,0.03064318,0.08286983,-0.09733690,-0.09796787,0.99041805,-0.03523146,-0.02898526,0.01226753,0.00066219,-0.04881803,-0.04906930,0.99760141,0.09749127,-0.09859496,3.13545131
4393604,4.38307619,0.05009494,0.03264165,0.06115314,-0.09839289,-0.09961769,0.99014892,-0.01244695,-0.01976708,-0.00430906,0.00067181,-0.04935167,-0.04989874,0.99753389,0.09855237,-0.10027139,3.13529658
4426444,4.41591596,0.01318989,0.03117611,0.03464012,-0.10002620,-0.10071108,0.98987464,-0.02985661,-0.01989440,-0.01184732,0.00065528,-0.05017333,-0.05045054,0.99746522,0.10019376,-0.10139236,3.13519072
4459304,4.44877576,0.00093262,0.03956968,0.03024349,-0.10159430,-0.10189658,0.98959360,-0.02096430,-0.01602335,-0.00033575,0.00064318,-0.05096275,-0.05104850,0.99739475,0.10176991,-0.10260651,3.13507270
4492124,4.48159599,0.00119908,0.03370750,0.01438897,-0.10326160,-0.10293730,0.98931331,-0.03052747,-0.01937716,0.00116521,0.00062628,-0.05180169,-0.05157419,0.99732456,0.10344600,-0.10367617,3.13496470
4524904,4.51437616,-0.00572894,0.03557274,0.01718683,-0.10483121,-0.10411728,0.98902482,-0.01479769,-0.01160538,0.01488143,0.00061495,-0.05259220,-0.05216964,0.99725227,0.10502419,-0.10488636,3.13484144
4557720,4.54719209,0.02411486,0.02544717,-0.00466309,-0.10618629,-0.10552834,0.98873062,-0.02564964,-0.02679588,0.00931621,0.00061742,-0.05327611,-0.05288047,0.99717845,0.10638687,-0.10632861,3.13468766
4590540,4.58001184,0.00812710,0.02891118,0.01159112,-0.10779695,-0.10664473,0.98843641,-0.03160735,-0.02226152,0.00204211,0.00060387,-0.05408734,-0.05344444,0.99710474,0.10800684,-0.10747661,3.13456606
4623312,4.61278390,0.02078407,0.02398162,0.02424809,-0.10951783,-0.10758174,0.98814554,-0.04355834,-0.02449834,0.00550681,0.00058142,-0.05495338,-0.05391896,0.99703178,0.10973796,-0.10844523,3.13446426
4656088,4.64555978,0.02158346,0.02184992,0.02184992,-0.11124863,-0.10849772,0.98785219,-0.03157363,-0.01723470,0.00287050,0.00055841,-0.05582449,-0.05438311,0.99695825,0.11147941,-0.10939348,3.13436245
4688872,4.67834377,0.01545482,0.04569831,0.01159112,-0.11274625,-0.10975632,0.98754310,-0.02348423,-0.02012650,0.01123619,0.00055233,-0.05657999,-0.05501852,0.99688072,0.11298650,-0.11068654,3.13421845
4721684,4.71115589,0.01105819,0.05462480,-0.00599541,-0.11371979,-0.11145423,0.98724117,-0.01225677,-0.02062585,0.00763190,0.00057473,-0.05707436,-0.05587283,0.99680500,0.11396638,-0.11241863,3.13401985
4754484,4.74395608,0.03011026,0.02424809,-0.01652067,-0.11473073,-0.11312201,0.98693475,-0.01515207,-0.02359674,0.01623911,0.00059591,-0.05758758,-0.05671224,0.99672813,0.11498396,-0.11412154,3.13382148
4787284,4.77675580,0.02158346,0.03837059,0.00599541,-0.11645711,-0.11404213,0.98662652,-0.03344524,-0.01779381,-0.00957572,0.00057332,-0.05845712,-0.05717905,0.99665079,0.11672198,-0.11507724,3.13371109
4820124,4.80959606,0.00826034,0.05422511,-0.00413017,-0.11727720,-0.11581809,0.98632259,-0.00625796,-0.01211160,0.00952703,0.00060276,-0.05887527,-0.05807248,0.99657459,0.11754772,-0.11688889,3.13349723
4852928,4.84240007,0.03970291,0.00026646,-0.02478101,-0.11893584,-0.11683335,0.98600397,-0.02217744,-0.01451431,0.01546085,0.00058693,-0.05971162,-0.05858699,0.99649467,0.11921807,-0.11794183,3.13336777
4885768,4.87523984,0.03983614,0.02065084,-0.01771975,-0.12019726,-0.11830998,0.98567476,-0.01115040,-0.01303768,0.00211823,0.00059607,-0.06035053,-0.05933190,0.99641199,0.12048863,-0.11945794,3.13318228
4918616,4.90808820,0.02571363,0.03464012,-0.00639510,-0.12199583,-0.11907424,0.98536186,-0.03352175,-0.01495896,0.00291938,0.00056683,-0.06125636,-0.05972136,0.99633350,0.12230051,-0.12026004,3.13308286
4951484,4.94095611,0.04130168,0.01092496,-0.01252374,-0.12336730,-0.12044411,0.98502454,-0.01921082,-0.01920433,0.02718246,0.00056938,-0.06195044,-0.06041340,0.99624891,0.12368242,-0.12167125,3.13290643
4984340,4.97381210,0.07061256,0.00239816,-0.00959265,-0.12497689,-0.12152010,0.98468952,-0.02101920,-0.01471037,0.00896281,0.00055553,-0.06276302,-0.06095896,0.99616489,0.12530455,-0.12278871,3.13276457
5017220,5.00669193,0.05102756,0.01065850,-0.00253139,-0.12689006,-0.12192572,0.98439455,-0.01764119,-0.00429499,0.00217772,0.00051087,-0.06372539,-0.06116942,0.99609079,0.12723307,-0.12323098,3.13270688
5050116,5.03958797,0.04583154,0.00879326,-0.00199847,-0.12866329,-0.12100505,0.98427810,-0.00244023,0.00235271,-0.00600666,0.00042799,-0.06461209,-0.06071398,0.99606170,0.12902094,-0.12232408,3.13282132
5082984,5.07245588,0.03104288,0.01838591,-0.00959265,-0.13063168,-0.12085642,0.98403692,-0.02146792,0.00098337,0.00180292,0.00036478,-0.06560029,-0.06064681,0.99600114,0.13100612,-0.12220498,3.13283395
5115796,5.10526800,0.03743798,0.00439663,-0.01105819,-0.13249049,-0.12143450,0.98371706,-0.00911108,-0.00405378,0.01335323,0.00032872,-0.06653670,-0.06094398,0.99592084,0.13288125,-0.12282316,3.13274979
5148640,5.13811206,0.03144257,0.03104288,0.00945942,-0.13445944,-0.12144978,0.98344802,-0.01104836,-0.00062054,0.00263596,0.00026917,-0.06752614,-0.06095949,0.99585332,0.13486796,-0.12287173,3.13274335
5181528,5.17100000,0.03650536,0.00279786,-0.00133231,-0.13267480,-0.12232556,0.98358211,0.00523339,-0.00340686,0.00469917,0.00035374,-0.06663318,-0.06139171,0.99588699,0.13306717,-0.12373210,3.13262724
5214332,5.20380401,0.03184226,0.01705360,-0.01918530,-0.13464226,-0.12227792,0.98332061,-0.00793585,-0.00174551,0.01423800,0.00029367,-0.06762173,-0.06137557,0.99582138,0.13505246,-0.12371696,3.13262534
5247168,5.23663997,0.02478101,0.01105819,-0.00279786,-0.13441870,-0.12423748,0.98310546,0.00111791,-0.00808673,-0.00214845,0.00036754,-0.06751805,-0.06235787,0.99576730,0.13482682,-0.12570617,3.13235616
5280056,5.26952791,0.01851914,0.01199081,-0.00786064,-0.13615748,-0.12509517,0.98275747,-0.00739721,-0.00405522,0.00527960,0.00034324,-0.06839578,-0.06279539,0.99567995,0.13658175,-0.12660908,3.13223195
5313016,5.30248785,0.01438897,0.01012557,0.00226493,-0.13811843,-0.12489793,0.98250875,-0.01373704,0.00160690,-0.00350487,0.00027493,-0.06938052,-0.06270469,0.99561748,0.13856141,-0.12644325,3.13225460
5345928,5.33540010,0.00812710,0.01159112,0.01798622,-0.14006528,-0.12509303,0.98220844,-0.00934878,-0.00186010,0.00680518,0.00021927,-0.07036007,-0.06281108,0.99554214,0.14052735,-0.12667694,3.13222479
5378812,5.36828422,-0.01398928,0.00719449,0.02518070,-0.13949502,-0.12323151,0.98252496,0.00228800,0.00824127,0.00380319,0.00016947,-0.07006477,-0.06187479,0.99562158,0.13995144,-0.12477176,3.13249564
5411668,5.40114021,-0.00253139,0.02278254,0.01558805,-0.13766109,-0.12260456,0.98286170,0.00436032,-0.00019818,0.02324182,0.00020328,-0.06913994,-0.06155252,0.99570617,0.13809965,-0.12410138,3.13259053
5444516,5.43398809,0.02904441,-0.01345635,0.00905972,-0.13822655,-0.12446503,0.98254852,-0.00825782,-0.01640412,0.02990270,0.00024943,-0.06943246,-0.06248843,0.99562749,0.13867058,-0.12600457,3.13232946
5477412,5.46688413,0.03450689,0.02038438,0.03810414,-0.13836231,-0.12641741,0.98228034,-0.00397167,-0.01860212,0.01845211,0.00031043,-0.06950947,-0.06346892,0.99556016,0.13880764,-0.12799432,3.13205933
5510268,5.49974012,0.04889586,-0.01185758,0.04756355,-0.13997030,-0.12747691,0.98191537,-0.01383829,-0.00948597,0.00514519,0.00029261,-0.07032256,-0.06400794,0.99546852,0.14043142,-0.12910268,3.13191223
5543184,5.53265619,0.03050996,0.00119908,0.04396631,-0.13818037,-0.12673068,0.98226537,0.00317061,0.00148654,-0.00204080,0.00032020,-0.06941903,-0.06362585,0.99555644,0.13862394,-0.12830997,3.13202953
5576048,5.56551980,0.02811179,-0.02558040,0.02637979,-0.13759274,-0.12486662,0.98258666,0.00209470,0.00621428,-0.00040895,0.00027216,-0.06911498,-0.06268800,0.99563713,0.13803063,-0.12640199,3.13229680
5608968,5.59844017,0.00093262,0.00492956,0.02837825,-0.13610422,-0.12363456,0.98294954,0.00133860,0.00107596,0.00289029,0.00027399,-0.06836114,-0.06206367,0.99572820,0.13652800,-0.12512207,3.13247656
5641848,5.63131999,0.00199847,0.00026646,0.02065084,-0.13513209,-0.12195516,0.98329362,0.00036648,0.00281454,0.02036852,0.00024493,-0.06786508,-0.06121718,0.99581460,0.13554677,-0.12339707,3.13271427
5674708,5.66417980,0.02304901,-0.00039969,0.02078407,-0.13668379,-0.12310651,0.98293514,-0.00565019,-0.00457904,0.01608831,0.00023505,-0.06864995,-0.06180134,0.99572448,0.13711308,-0.12459502,3.13255429
5707576,5.69704818,0.02611332,0.01825268,0.01332312,-0.13489768,-0.12397309,0.98307342,0.01575706,-0.01128082,0.02010042,0.00031937,-0.06775605,-0.06222879,0.99575929,0.13531017,-0.12544547,3.13244009
5740472,5.72994422,0.03890352,0.00079939,0.00572894,-0.13412082,-0.12580039,0.98294744,0.00301731,-0.00969765,0.00508964,0.00040541,-0.06737386,-0.06314266,0.99572763,0.13452624,-0.12729085,3.13219189
5773332,5.76280403,0.01372282,0.01851914,0.00053292,-0.13483085,-0.12760975,0.98261709,-0.00310859,-0.00715587,0.00249034,0.00044418,-0.06773891,-0.06405377,0.99564466,0.13524277,-0.12914444,3.13194203
5806200,5.79567193,0.02238285,-0.00226493,0.00199847,-0.13666880,-0.12823456,0.98228178,-0.01103628,-0.00482208,0.01088232,0.00040652,-0.06866541,-0.06437516,0.99556045,0.13709785,-0.12981352,3.13185095
5839120,5.82859182,0.01065850,0.00239816,0.00666156,-0.13855272,-0.12872056,0.98195409,-0.01330274,-0.00433607,0.00730371,0.00036196,-0.06961454,-0.06462732,0.99547824,0.13899989,-0.13034293,3.13177919
5872012,5.86148405,0.03623890,0.01318989,0.02531394,-0.13738381,-0.12717717,0.98231906,-0.00299704,-0.00246149,0.02769065,0.00034451,-0.06901968,-0.06384767,0.99556980,0.13781974,-0.12875008,3.13200211
5904956,5.89442777,0.02411486,-0.00799387,0.01438897,-0.13610200,-0.12870849,0.98229808,0.00133638,-0.00019775,-0.00475907,0.00043735,-0.06838258,-0.06461092,0.99556455,0.13652579,-0.13028571,3.13179397
5937896,5.92736816,0.01891884,0.02025115,0.00612864,-0.13806817,-0.12857800,0.98204107,-0.00304511,-0.00179309,0.01405269,0.00036916,-0.06937008,-0.06455389,0.99549999,0.13851065,-0.13018881,3.13180756
5970772,5.96024417,0.01452220,0.01612098,0.01878561,-0.13995327,-0.12906470,0.98171033,-0.01385531,-0.00423607,0.00437367,0.00032390,-0.07031991,-0.06480659,0.99541702,0.14041423,-0.13071955,3.13173627
6003636,5.99310779,0.01585452,0.00905972,0.02145023,-0.13803389,-0.12873106,0.98202571,0.01083663,-0.00041933,0.02358955,0.00037286,-0.06935340,-0.06463075,0.99549617,0.13847606,-0.13034402,3.13179159
6036504,6.02597618,0.02677948,-0.00599541,0.02264931,-0.13907235,-0.13035644,0.98166456,-0.00570303,-0.00880371,-0.00021929,0.00039390,-0.06988305,-0.06545142,0.99540538,0.13952465,-0.13201885,3.13156294
6069376,6.05884790,0.00000000,0.01092496,0.02997703,-0.14036964,-0.13178484,0.98128948,-0.00098778,-0.00127180,-0.00814492,0.00039887,-0.07054197,-0.06617456,0.99531126,0.14083476,-0.13349885,3.13136100
6102204,6.09167623,-0.00399694,0.03557274,0.00586217,-0.13866342,-0.13088907,0.98165187,0.01439585,0.00735392,0.00614113,0.00042369,-0.06967992,-0.06571717,0.99540224,0.13911168,-0.13255370,3.13149309
6135120,6.12459182,-0.01145789,0.04130168,-0.01292343,-0.14062800,-0.13069076,0.98139867,-0.00024113,-0.00065689,0.00468534,0.00035354,-0.07066660,-0.06562631,0.99533863,0.14109573,-0.13238894,3.13151335
6168108,6.15757989,0.01851914,0.01838591,0.01279020,-0.13978002,-0.13248901,0.98127880,-0.00450710,-0.00764771,0.03922903,0.00044429,-0.07024913,-0.06652540,0.99530858,0.14023923,-0.13420510,3.13125991
6200988,6.19046020,0.02677948,0.02171669,0.00719449,-0.13819651,-0.13138736,0.98165111,0.00465159,0.00272526,0.01468682,0.00045834,-0.06944781,-0.06596517,0.99540205,0.13864023,-0.13305252,3.13142013
6233872,6.22334384,0.05768913,0.00812710,-0.00532925,-0.13978252,-0.13247816,0.98127975,-0.00328389,-0.00277574,0.01310497,0.00044506,-0.07025042,-0.06651988,0.99530878,0.14024180,-0.13419413,3.13125896
6266736,6.25620794,0.02957734,0.02691271,0.01239050,-0.14142371,-0.13349454,0.98090667,-0.00066613,0.00043790,-0.01948089,0.00042565,-0.07108051,-0.06703779,0.99521503,0.14189951,-0.13526200,3.13110971
6299584,6.28905582,-0.01159112,0.01945176,0.00306432,-0.14092248,-0.13161716,0.98123254,0.00127405,0.00441989,-0.00003141,0.00037566,-0.07081913,-0.06609282,0.99529695,0.14139313,-0.13333863,3.13138151
6332476,6.32194805,-0.01239050,0.01292343,0.00333078,-0.14045108,-0.13354324,0.98104009,-0.00139461,-0.00219895,0.01090330,0.00045905,-0.07059174,-0.06705784,0.99524860,0.14091703,-0.13529258,3.13110733
6365328,6.35480022,0.00106585,0.01625421,0.00985911,-0.14219906,-0.13258061,0.98091869,-0.00379702,-0.00145260,0.01639581,0.00036577,-0.07146564,-0.06658256,0.99521808,0.14268274,-0.13434551,3.13124251
6398188,6.38766002,0.01905207,0.00293109,0.00945942,-0.14032244,-0.13321585,0.98110275,0.00335956,-0.00399117,0.01596761,0.00045039,-0.07052535,-0.06689295,0.99526424,0.14078712,-0.13495640,3.13115739
6431040,6.42051219,0.01878561,0.00039969,0.01265697,-0.14170055,-0.13455795,0.98072166,-0.00746937,-0.00728776,0.00096774,0.00045080,-0.07122486,-0.06757333,0.99516859,0.14217910,-0.13635164,3.13096213
6463940,6.45341205,0.02797856,-0.00839357,0.02504747,-0.14363378,-0.13479841,0.98040742,-0.01237208,-0.00289689,0.00933868,0.00039209,-0.07219796,-0.06770336,0.99508972,0.14413232,-0.13663558,3.13092541
6496856,6.48632812,0.00799387,0.01398928,0.03650536,-0.14173314,-0.13533748,0.98060960,0.00696752,-0.00260197,0.00425369,0.00047306,-0.07124495,-0.06796532,0.99514045,0.14221204,-0.13714721,3.13085818
6529748,6.51921987,0.00053292,-0.02504747,0.04290046,-0.14366731,-0.13496202,0.98037986,-0.00818816,0.00092882,0.00301862,0.00038999,-0.07221519,-0.06778617,0.99508275,0.14416622,-0.13680313,3.13091516
6562616,6.55208778,-0.01558805,0.01065850,0.02424809,-0.14180789,-0.13442134,0.98072490,0.00850712,0.00136471,0.01365989,0.00043146,-0.07127738,-0.06750601,0.99516944,0.14228751,-0.13621449,3.13100337
6595444,6.58491611,-0.00959265,0.01492190,0.03397396,-0.14326752,-0.13568022,0.98033924,0.00020112,0.00018218,-0.00084704,0.00042413,-0.07201753,-0.06814536,0.99507255,0.14376221,-0.13752763,3.13082194
6628320,6.61779212,-0.01918530,0.08766615,0.01851914,-0.14180397,-0.13702875,0.98036441,0.00410865,-0.00359625,-0.00038391,0.00052177,-0.07128871,-0.06881585,0.99507884,0.14228357,-0.13887360,3.13063168
6661196,6.65066814,-0.01971822,0.01092496,0.02411486,-0.13989681,-0.13665753,0.98069019,0.00830501,0.00042707,0.01247382,0.00057214,-0.07032800,-0.06862061,0.99516067,0.14035720,-0.13845671,3.13069462
6694052,6.68352413,-0.02371516,0.04942879,0.00799387,-0.14062429,-0.13480780,0.98084230,-0.00146554,0.00199530,0.00377685,0.00048171,-0.07068412,-0.06769486,0.99519891,0.14109196,-0.13658511,3.13095808
6726956,6.71642780,-0.00746095,0.05489127,0.00706126,-0.14067970,-0.13676924,0.98056230,-0.00385155,-0.00580888,0.02627361,0.00054914,-0.07072210,-0.06868037,0.99512844,0.14114795,-0.13858630,3.13067650
6759840,6.74931192,-0.00746095,0.01625421,0.02331547,-0.14243632,-0.13758087,0.98019542,-0.02235860,-0.00963593,-0.01461923,0.00051545,-0.07160923,-0.06909650,0.99503631,0.14292241,-0.13944965,3.13055825
6792812,6.78228378,0.01252374,0.06408423,0.01732006,-0.14390749,-0.13882941,0.97980422,-0.01258664,-0.01107293,0.01458055,0.00050860,-0.07235548,-0.06973089,0.99493799,0.14440894,-0.14075404,3.13037276
6825700,6.81517219,0.01865237,0.02744564,0.02677948,-0.14357872,-0.14077079,0.97957553,-0.00119667,-0.00742257,0.01383263,0.00058851,-0.07220060,-0.07070488,0.99488058,0.14407670,-0.14272874,3.13009238
6858604,6.84807586,0.00079939,0.06874732,0.04076876,-0.14490241,-0.14217267,0.97917823,-0.01305658,-0.01383318,0.00837064,0.00058971,-0.07287367,-0.07141611,0.99478073,0.14541436,-0.14418828,3.12988686
6891444,6.88091611,0.02864472,0.02944411,0.05315927,-0.14655830,-0.14315416,0.97878866,-0.01579520,-0.01089856,0.02243203,0.00056246,-0.07371154,-0.07191803,0.99468288,0.14708814,-0.14522681,3.12974309
6924284,6.91375589,0.03663859,0.03224196,0.07274425,-0.14813163,-0.14425504,0.97839012,-0.01373360,-0.01028597,0.01062351,0.00054093,-0.07450866,-0.07247986,0.99458274,0.14867882,-0.14638651,3.12958312
6957144,6.94661617,0.03850383,0.00866003,0.08100461,-0.14916298,-0.14586772,0.97799415,-0.00904015,-0.01257953,0.01614642,0.00055732,-0.07503631,-0.07329642,0.99448308,0.14972175,-0.14805843,3.12934708
6990004,6.97947597,0.03090965,0.02118377,0.07221133,-0.15061802,-0.14448287,0.97797679,-0.00001673,0.00214890,-0.00727367,0.00044662,-0.07575973,-0.07260849,0.99447879,0.15119343,-0.14667556,3.12956523
7022864,7.01233577,0.00999234,0.03797090,0.05569066,-0.14871878,-0.14499931,0.97819108,0.01346488,-0.00490303,0.00813705,0.00053098,-0.07480708,-0.07285828,0.99453268,0.14927253,-0.14716050,3.12950110
7055720,7.04519176,0.01385605,0.04156814,0.03490658,-0.14783957,-0.14328862,0.97857608,-0.00206277,-0.00099848,0.02117980,0.00049683,-0.07435489,-0.07199403,0.99462938,0.14838354,-0.14539241,3.12976789
7088628,7.07810020,0.03610566,0.05582389,0.02438132,-0.14771764,-0.14524091,0.97830696,-0.00096400,-0.00637041,0.00802118,0.00057278,-0.07430470,-0.07297476,0.99456176,0.14826018,-0.14738498,3.12947535
7121512,7.11098384,0.03477335,0.03810414,0.01545482,-0.14726983,-0.14334962,0.97865304,-0.00092353,0.00223634,0.01353443,0.00051859,-0.07406863,-0.07202181,0.99464874,0.14780746,-0.14544214,3.12976264
7154412,7.14388418,0.03050996,0.02078407,0.02358193,-0.14887534,-0.14440162,0.97825565,-0.00468911,-0.00354759,0.00856072,0.00049833,-0.07488202,-0.07255903,0.99454889,0.14943085,-0.14655306,3.12960076
7187300,7.17677211,0.02358193,0.02744564,0.00892649,-0.14726002,-0.14336763,0.97865200,-0.00142162,-0.00165190,0.01475620,0.00051816,-0.07406368,-0.07203091,0.99464855,0.14779753,-0.14546030,3.12976288
7220124,7.20959615,0.03330781,-0.00599541,0.00279786,-0.14920783,-0.14346247,0.97834300,-0.01461051,-0.00228947,0.00896168,0.00045154,-0.07504391,-0.07208874,0.99457082,0.14976715,-0.14560055,3.12974190
7252980,7.24245214,0.03224196,0.02531394,0.02145023,-0.15115313,-0.14312361,0.97809429,-0.01290937,0.00127791,0.00383925,0.00036754,-0.07602047,-0.07192887,0.99450845,0.15173470,-0.14529786,3.12978959
7285864,7.27533578,0.03477335,-0.00039969,0.00759418,-0.15284807,-0.14401967,0.97769908,-0.00144880,-0.00099985,0.00325799,0.00034047,-0.07687851,-0.07238840,0.99440898,0.15344960,-0.14625292,3.12964463
7318748,7.30821990,0.03983614,0.02065084,0.01025880,-0.15397066,-0.14556783,0.97729349,-0.00765044,-0.00921732,0.01880026,0.00035929,-0.07745256,-0.07317266,0.99430704,0.15458564,-0.14786285,3.12939763
7351616,7.34108781,0.04343338,0.00106585,0.01425574,-0.15202389,-0.14547693,0.97761192,0.00309812,-0.00125158,0.01042521,0.00042644,-0.07647237,-0.07311625,0.99438705,0.15261568,-0.14772443,3.12942004
7384504,7.37397623,0.03503981,0.00905972,0.00039969,-0.15388629,-0.14598698,0.97724418,-0.01212934,-0.00464778,0.01006049,0.00037817,-0.07741256,-0.07338290,0.99429464,0.15450024,-0.14828978,3.12933278
7417440,7.40691184,0.03437366,0.00866003,0.00479632,-0.15195225,-0.14579513,0.97757558,-0.00014736,-0.00068924,0.00509042,0.00044199,-0.07643825,-0.07327574,0.99437799,0.15254317,-0.14804826,3.12936925
7450324,7.43979597,0.04050230,0.00053292,-0.01012557,-0.15389423,-0.14592290,0.97725229,-0.01016827,-0.00153802,0.00443715,0.00037708,-0.07741631,-0.07335062,0.99429664,0.15450832,-0.14822444,3.12933945
7483200,7.47267198,0.02278254,0.02637979,0.00026646,-0.15274776,-0.14438860,0.97766046,0.00064816,0.00205462,0.02136296,0.00036036,-0.07683033,-0.07257307,0.99439935,0.15334807,-0.14662791,3.12958312
7516052,7.50552415,0.05142726,0.00812710,0.00666156,-0.15431754,-0.14314174,0.97759733,-0.00510629,0.00227261,0.00628942,0.00025584,-0.07761310,-0.07195515,0.99438352,0.15493669,-0.14538885,3.12977266
7548924,7.53839588,0.02877795,0.04103522,-0.00413017,-0.15288619,-0.14187386,0.97800683,0.00444870,0.00393441,-0.00388575,0.00025931,-0.07688550,-0.07131017,0.99448642,0.15348815,-0.14405941,3.12997460
7581800,7.57127189,0.02198316,0.01505513,-0.00532925,-0.15483855,-0.14191390,0.97769384,-0.01337434,-0.00212906,0.01107568,0.00019224,-0.07786845,-0.07134094,0.99440774,0.15546406,-0.14414500,3.12995934
7614708,7.60417985,0.01279020,0.03464012,0.01358959,-0.15658868,-0.14095211,0.97755413,-0.00259100,-0.00113772,0.01097125,0.00009178,-0.07874397,-0.07086763,0.99437265,0.15723581,-0.14320158,3.13010740
7647588,7.63706016,0.03330781,0.00466309,0.01692037,-0.15798320,-0.14225588,0.97714099,-0.00510272,-0.00471677,0.01284921,0.00009267,-0.07945361,-0.07153054,0.99426879,0.15864789,-0.14456815,3.12989449
7680500,7.66997194,0.03424043,0.01758652,0.02331547,-0.15909527,-0.14381070,0.97673282,-0.00423481,-0.00560336,0.00324768,0.00011335,-0.08002267,-0.07231819,0.99416618,0.15977419,-0.14618617,3.12964057
7713420,7.70289182,0.01945176,0.02038438,0.02358193,-0.16025183,-0.14533259,0.97631826,-0.00210169,-0.00261661,0.00195318,0.00013091,-0.08061418,-0.07308978,0.99406185,0.16094579,-0.14777269,3.12939023
7746324,7.73579597,0.00972588,0.02238285,0.03330781,-0.16125667,-0.14360285,0.97640905,-0.00329411,0.00468685,0.00259489,0.00002210,-0.08110971,-0.07222688,0.99408473,0.16196383,-0.14602560,3.12967586
7779172,7.76864385,0.00879326,0.02264931,0.03623890,-0.16217237,-0.14182651,0.97651720,-0.00311083,0.00120151,0.01054335,-0.00008575,-0.08156030,-0.07134031,0.99411201,0.16289175,-0.14422863,3.12997198
7812008,7.80147981,0.00945942,0.04116845,0.03557274,-0.16026945,-0.14152239,0.97687511,0.00231047,0.00016497,0.00212878,-0.00003261,-0.08059972,-0.07117652,0.99420194,0.16096364,-0.14387159,3.13003420
7844852,7.83432388,0.00692802,0.02065084,0.02491424,-0.16222167,-0.14150787,0.97655496,-0.00599122,-0.00204681,0.01367944,-0.00010440,-0.08158301,-0.07118090,0.99412145,0.16294175,-0.14390355,3.13003253
7877700,7.86717176,0.01345635,0.04290046,0.04729709,-0.16083538,-0.14293723,0.97657604,0.00092328,-0.00354715,0.00828725,-0.00000006,-0.08089279,-0.07189085,0.99412670,0.16153698,-0.14533374,3.12980818
7910564,7.90003585,0.00786064,0.03996937,0.03690505,-0.16021687,-0.14481820,0.97640056,-0.00140421,-0.00068961,0.00773031,0.00009578,-0.08059232,-0.07283236,0.99408264,0.16091037,-0.14724497,3.12950634
7943372,7.93284416,0.01292343,0.05169372,0.03210873,-0.15828633,-0.14470005,0.97673282,0.01741719,0.00138950,0.00031793,0.00015933,-0.07961925,-0.07276182,0.99416618,0.15895490,-0.14707721,3.12953710
7976256,7.96572780,0.00626187,0.05475804,0.00133231,-0.15984988,-0.14580996,0.97631301,-0.00470090,-0.00360410,0.00635296,0.00014735,-0.08041336,-0.07332867,0.99406061,0.16053861,-0.14825181,3.12934875
8009136,7.99860811,0.00879326,0.05515773,0.01638744,-0.16174490,-0.14621935,0.97593984,-0.01501290,-0.00563611,0.01844490,0.00009366,-0.08137027,-0.07354578,0.99396677,0.16245860,-0.14871797,3.12927508
8042012,8.03148365,0.02145023,0.02424809,0.04183461,-0.16348845,-0.14701591,0.97552957,-0.01131622,-0.00557198,0.00225359,0.00005901,-0.08225334,-0.07395694,0.99386358,0.16422564,-0.14957808,3.12914109
8074896,8.06436824,0.01811945,0.04636447,0.03717151,-0.16232559,-0.14863104,0.97547855,0.00094864,-0.00615411,0.01255852,0.00016628,-0.08167750,-0.07476168,0.99385061,0.16304709,-0.15120435,3.12888050
8107740,8.09721183,0.02105054,0.01039204,0.04689740,-0.16427419,-0.14842515,0.97518367,-0.01980785,-0.00050062,0.01236516,0.00008139,-0.08265760,-0.07467057,0.99377641,0.16502223,-0.15104304,3.12891411
8140628,8.13010025,0.03304135,0.02518070,0.05795559,-0.16582109,-0.14714675,0.97511615,-0.00141522,-0.00202316,0.01096779,-0.00003334,-0.08342871,-0.07403819,0.99375963,0.16659055,-0.14977178,3.12913227
8173504,8.16297626,0.01039204,0.00919296,0.05489127,-0.16447072,-0.14580248,0.97554626,0.00577933,0.00566576,-0.00142515,-0.00004376,-0.08273954,-0.07335471,0.99386768,0.16522147,-0.14835911,3.12937426
8206384,8.19585609,-0.00159877,0.00519602,0.02637979,-0.16253175,-0.14572105,0.97588338,0.00432864,-0.00051919,0.00580603,0.00002169,-0.08176193,-0.07330205,0.99395256,0.16325602,-0.14822698,3.12940049
8239252,8.22872352,0.00413017,0.01545482,0.01199081,-0.16069881,-0.14514863,0.97627239,0.00811092,0.00208223,0.00639367,0.00006479,-0.08083507,-0.07300342,0.99405040,0.16139863,-0.14759521,3.12950396
8272072,8.26154422,0.01638744,-0.00133231,0.03184226,-0.16236503,-0.14608335,0.97585735,-0.01512520,-0.01065493,0.03586137,0.00003928,-0.08167989,-0.07348333,0.99394607,0.16308698,-0.14859403,3.12934756
8305044,8.29451560,0.05302603,-0.00066616,0.00972588,-0.16211451,-0.14802579,0.97560567,-0.00194798,-0.00089999,0.01121074,0.00012776,-0.08156575,-0.07445797,0.99388256,0.16283321,-0.15057857,3.12902569
8337976,8.32744789,0.05475804,0.01545482,-0.00479632,-0.16059154,-0.14930759,0.97566242,0.00067943,-0.00303616,0.00846845,0.00023814,-0.08080682,-0.07509285,0.99389686,0.16128997,-0.15185393,3.12881708
8370876,8.36034774,0.03037672,-0.00506279,0.00732772,-0.16208651,-0.15048361,0.97523460,-0.01174161,-0.00918435,-0.00770527,0.00022905,-0.08156719,-0.07569324,0.99378929,0.16280478,-0.15309760,3.12861728
8403760,8.39323234,0.01931853,0.03903675,-0.00199847,-0.16404013,-0.15030646,0.97493486,-0.00905557,-0.00106072,0.00992840,0.00014889,-0.08255025,-0.07561627,0.99371385,0.16478493,-0.15296640,3.12863659
8436648,8.42611980,0.02371516,0.03197550,-0.00413017,-0.16247756,-0.14921916,0.97536354,0.00403030,0.00249065,0.00901151,0.00016419,-0.08175622,-0.07505991,0.99382171,0.16320114,-0.15181117,3.12882304
8469488,8.45895957,0.01945176,0.04796324,-0.01412251,-0.16233551,-0.14727396,0.97568302,-0.00245941,0.00420757,0.01919001,0.00009214,-0.08167261,-0.07408120,0.99390211,0.16305709,-0.14981351,3.12914323
8502336,8.49180793,0.02931087,0.05329250,-0.04010260,-0.16423616,-0.14671401,0.97544918,-0.00861540,0.00071792,0.00819337,0.00000338,-0.08262704,-0.07381116,0.99384326,0.16498365,-0.14928758,3.12922000
8535136,8.52460765,0.03304135,0.04982848,-0.00532925,-0.16615175,-0.14701030,0.97507991,-0.02623107,-0.00508931,0.00270325,-0.00005347,-0.08359436,-0.07397192,0.99375038,0.16692593,-0.14964039,3.12915849
8568000,8.55747222,0.04663093,0.03304135,-0.00093262,-0.16810335,-0.14692730,0.97475795,-0.02794157,-0.00346331,0.02499789,-0.00012802,-0.08457764,-0.07394259,0.99366941,0.16890537,-0.14960587,3.12916207
8600900,8.59037208,0.05569066,-0.00679479,0.03250842,-0.16929287,-0.14531013,0.97479457,-0.00209384,0.00639412,-0.00921845,-0.00024240,-0.08516708,-0.07313805,0.99367866,0.17011218,-0.14797777,3.12944078
8633820,8.62329196,0.02451455,0.02424809,0.02637979,-0.17120975,-0.14485621,0.97452735,-0.01580197,0.00301051,0.00154686,-0.00033336,-0.08613082,-0.07292270,0.99361133,0.17205743,-0.14756208,3.12951469
8666724,8.65619564,0.01705360,0.01412251,0.02717917,-0.17061941,-0.14674556,0.97434825,-0.00125559,0.00026119,0.00538808,-0.00023231,-0.08584485,-0.07386797,0.99356632,0.17145830,-0.14948544,3.12918972
8699604,8.68907642,0.02464778,0.01119142,0.03024349,-0.17254352,-0.14635083,0.97406873,-0.01739788,-0.00159839,0.02568710,-0.00032244,-0.08681264,-0.07368265,0.99349594,0.17341135,-0.14913143,3.12925481
8732484,8.72195625,0.03770444,0.01558805,0.04290046,-0.17170751,-0.14814970,0.97394456,-0.00041163,-0.00077608,0.00310624,-0.00021628,-0.08640230,-0.07458095,0.99346466,0.17256269,-0.15095589,3.12894630
8765352,8.75482368,0.03783767,-0.00253139,0.02891118,-0.17011116,-0.14710856,0.97438230,0.00165413,0.00086834,0.00584227,-0.00020372,-0.08559042,-0.07404749,0.99357490,0.17094248,-0.14984455,3.12914013
8798224,8.78769588,0.03517305,0.01279020,0.03024349,-0.17150690,-0.14566697,0.97435417,-0.00207707,0.00260057,-0.00145382,-0.00031891,-0.08628508,-0.07333270,0.99356775,0.17235908,-0.14840192,3.12939023
8831084,8.82055568,0.02358193,0.02691271,0.01865237,-0.17052794,-0.14402387,0.97477025,0.00353576,0.00901410,0.02498561,-0.00035495,-0.08578103,-0.07250114,0.99367246,0.17136545,-0.14669029,3.12968492
8863912,8.85338401,0.03557274,0.01332312,0.02451455,-0.16858928,-0.14400627,0.97510995,0.01136272,-0.00174567,0.01463616,-0.00028686,-0.08480319,-0.07247990,0.99375791,0.16939831,-0.14662227,3.12969923
8896804,8.88627624,0.04250077,0.00506279,0.01039204,-0.17035462,-0.14473500,0.97469530,-0.01250669,-0.00614390,0.00967973,-0.00031997,-0.08569787,-0.07285731,0.99365358,0.17118955,-0.14741537,3.12956500
8929704,8.91917610,0.03743798,0.00666156,0.02105054,-0.17195115,-0.14576643,0.97426109,0.00007614,0.00001448,0.00083661,-0.00033504,-0.08650946,-0.07338595,0.99354438,0.17280997,-0.14851575,3.12937903
8962572,8.95204353,0.02331547,0.00746095,0.00226493,-0.17038569,-0.14468313,0.97469758,0.00754389,0.00503470,0.00796843,-0.00032434,-0.08571315,-0.07283154,0.99365415,0.17122111,-0.14736295,3.12957596
8995480,8.98495197,0.03996937,0.00626187,0.01785299,-0.17232575,-0.14471621,0.97435150,-0.02493987,-0.00201230,0.00611722,-0.00039434,-0.08669183,-0.07286100,0.99356708,0.17319029,-0.14744775,3.12956309
9028364,9.01783561,0.03144257,0.00945942,0.02424809,-0.17074067,-0.14366009,0.97478675,0.00350435,0.00205854,0.00934410,-0.00038382,-0.08588567,-0.07232032,0.99367656,0.17158133,-0.14632262,3.12975883
9061228,9.05070018,0.04036906,-0.00719449,0.01358959,-0.17260167,-0.14300023,0.97455587,-0.00342372,0.00164281,-0.00263202,-0.00048004,-0.08682032,-0.07200128,0.99361839,0.17347040,-0.14569404,3.12986803
9094088,9.08355998,0.02211639,0.00532925,0.00772741,-0.17453771,-0.14273524,0.97425012,-0.00197595,-0.00130773,0.00914830,-0.00056153,-0.08779553,-0.07188117,0.99354152,0.17543626,-0.14547286,3.12990713
9126940,9.11641216,0.03210873,-0.00479632,0.01292343,-0.17259716,-0.14274444,0.97459421,0.00438426,-0.00203094,0.01466364,-0.00049217,-0.08681639,-0.07187292,0.99362812,0.17346582,-0.14543146,3.12991571
9159812,9.14928436,0.03184226,0.02198316,0.00239816,-0.17068045,-0.14253639,0.97496213,0.00490896,-0.00101830,0.01331913,-0.00043177,-0.08584832,-0.07175584,0.99372062,0.17152023,-0.14516843,3.12995958
9192676,9.18214797,0.02837825,-0.00226493,0.00532925,-0.17187256,-0.14401862,0.97453470,-0.00561766,-0.00637201,0.00739890,-0.00041102,-0.08645869,-0.07250795,0.99361314,0.17273025,-0.14671998,3.12969422
9225584,9.21505641,0.02731240,0.01465544,-0.00399694,-0.16996657,-0.14373837,0.97491035,0.01347244,0.00018369,0.01752132,-0.00035309,-0.08549571,-0.07235466,0.99370765,0.17079581,-0.14638295,3.12974977
9258428,9.24790000,0.04316692,0.00000000,-0.01692037,-0.17190496,-0.14349837,0.97460594,-0.01681574,-0.00030045,0.01147807,-0.00043135,-0.08647205,-0.07224662,0.99363107,0.17276310,-0.14618699,3.12977910
9291296,9.28076839,0.01838591,0.01971822,0.01518836,-0.17332524,-0.14476325,0.97416753,-0.00416499,-0.00367424,0.00483638,-0.00042857,-0.08719634,-0.07289128,0.99352083,0.17420499,-0.14752245,3.12954998
9324204,9.31367588,0.03224196,0.00839357,0.01252374,-0.17146636,-0.14428794,0.97456655,-0.00407074,-0.00390542,0.02787483,-0.00038209,-0.08625564,-0.07264029,0.99362115,0.17231792,-0.14698569,3.12964344
9357120,9.34659194,0.03996937,0.00253139,0.00799387,-0.17212318,-0.14240529,0.97472763,-0.00121667,-0.00139353,0.00745010,-0.00048735,-0.08657539,-0.07169930,0.99366168,0.17298464,-0.14507117,3.12997269
9389996,9.37946796,0.03743798,0.00199847,0.00359724,-0.17021535,-0.14286303,0.97499589,0.00102590,-0.00020337,-0.00014240,-0.00039882,-0.08561587,-0.07191663,0.99372920,0.17104818,-0.14549148,3.12989997
9422872,9.41234397,0.02078407,0.01079173,0.00839357,-0.17216063,-0.14274650,0.97467117,-0.00581788,-0.00080818,0.00653005,-0.00047408,-0.08659636,-0.07187087,0.99364748,0.17302267,-0.14542222,3.12991261
9455736,9.44520759,0.03663859,0.00599541,0.00279786,-0.17284506,-0.14087269,0.97482242,-0.00342447,-0.00024059,0.01541191,-0.00057948,-0.08693036,-0.07093464,0.99368543,0.17371754,-0.14351756,3.13024044
9488636,9.47810840,0.04489892,0.01732006,0.01225727,-0.17096409,-0.14047895,0.97521104,0.00128636,-0.00087847,0.01111704,-0.00053013,-0.08597907,-0.07072473,0.99378328,0.17180810,-0.14306564,3.13031840
9521504,9.51097583,0.03530628,0.00199847,0.00559571,-0.17288876,-0.14065004,0.97484703,0.00003721,0.00026919,-0.00219077,-0.00059062,-0.08695108,-0.07082316,0.99369163,0.17376189,-0.14329030,3.13027954
9554400,9.54387187,0.02291577,0.02584686,0.01758652,-0.17436790,-0.13929772,0.97477779,-0.00312233,-0.00010657,0.00959724,-0.00070265,-0.08768938,-0.07015427,0.99367418,0.17526382,-0.14194106,3.13051557
9587276,9.57674789,0.00599541,0.01025880,0.01279020,-0.17243885,-0.13918519,0.97513675,0.01057363,0.00026917,0.00459957,-0.00064090,-0.08671523,-0.07008519,0.99376449,0.17330513,-0.14177639,3.13054585
9620120,9.60959243,0.02184992,0.01598775,0.00253139,-0.17434649,-0.13946944,0.97475709,-0.02487226,-0.00725907,0.02621949,-0.00069500,-0.08767953,-0.07024036,0.99366893,0.17524206,-0.14211666,3.13048624
9652980,9.64245223,0.03264165,0.00812710,0.01945176,-0.17241996,-0.13932662,0.97511987,0.00835746,-0.00032182,0.00876683,-0.00063476,-0.08670648,-0.07015610,0.99376020,0.17328597,-0.14192093,3.13052225
9685872,9.67534446,0.02997703,0.00346401,0.00772741,-0.17250349,-0.13735829,0.97538452,-0.00108048,-0.00277843,0.00630492,-0.00072317,-0.08673717,-0.06916887,0.99382677,0.17337071,-0.13990474,3.13087010
9718716,9.70818805,0.01945176,0.01159112,0.00945942,-0.17413513,-0.13834288,0.97495536,-0.01336487,-0.00814149,-0.00254321,-0.00073722,-0.08756623,-0.06967363,0.99371881,0.17502742,-0.14095561,3.13068890
9751576,9.74104785,0.03024349,0.02304901,0.00666156,-0.17224454,-0.13885924,0.97521800,0.01111174,-0.00493959,0.01159835,-0.00064870,-0.08661523,-0.06992036,0.99378499,0.17310781,-0.14143717,3.13060522
9784420,9.77389240,0.02997703,-0.00373047,-0.00719449,-0.17078566,-0.14022059,0.97527952,0.00721145,-0.00870518,0.00665408,-0.00053778,-0.08588734,-0.07059414,0.99380044,0.17162704,-0.14279623,3.13037014
9817344,9.80681610,0.02078407,0.02704594,-0.00226493,-0.17013149,-0.13840431,0.97565326,-0.00125523,-0.00026757,0.00969833,-0.00059196,-0.08554681,-0.06967822,0.99389448,0.17096312,-0.14091784,3.13068866
9850268,9.83973979,0.03197550,0.01345635,-0.03237519,-0.17031417,-0.14034305,0.97534465,-0.00156082,-0.00443234,0.00658894,-0.00051190,-0.08565051,-0.07065222,0.99381694,0.17114848,-0.14290983,3.13034272
9883188,9.87265968,0.02224962,0.01625421,0.00173201,-0.17194682,-0.14132715,0.97491559,-0.01262349,-0.00808690,0.00848281,-0.00052687,-0.08647998,-0.07115680,0.99370889,0.17280564,-0.14396066,3.13016200
9916100,9.90557193,0.02784533,0.01345635,0.00746095,-0.17293824,-0.13958709,0.97499094,-0.00430785,-0.00054963,0.01792896,-0.00063746,-0.08696981,-0.07028985,0.99372777,0.17381212,-0.14220129,3.13046550
9948996,9.93846797,0.04982848,0.00572894,-0.00133231,-0.17106816,-0.14019726,0.97523345,0.00505254,-0.00311328,0.00792086,-0.00054435,-0.08603000,-0.07058387,0.99378890,0.17191372,-0.14277944,3.13036417
9981852,9.97132396,0.04183461,0.01212404,-0.00213170,-0.17292246,-0.14069114,0.97483520,-0.00896230,-0.00188698,-0.00779420,-0.00058744,-0.08696850,-0.07084378,0.99368867,0.17379605,-0.14333331,3.13026690
10014744,10.00421619,0.02944411,0.01758652,0.00413017,-0.17107818,-0.14138282,0.97506055,0.00628325,-0.00363670,0.00687307,-0.00049183,-0.08604223,-0.07117893,0.99374542,0.17192387,-0.14399549,3.13015246
10047736,10.03720760,0.04130168,0.00466309,0.00199847,-0.17301858,-0.14116766,0.97474918,-0.01326071,0.00078681,0.00181329,-0.00056968,-0.08701990,-0.07108358,0.99366703,0.17389368,-0.14382462,3.13018107
10080740,10.07021236,0.02957734,0.00999234,-0.00039969,-0.17128373,-0.14036905,0.97517080,0.00404741,0.00047648,0.02336437,-0.00054211,-0.08613994,-0.07067129,0.99377307,0.17213254,-0.14296109,3.13032817
10113736,10.10320758,0.04489892,-0.00626187,-0.00293109,-0.16945499,-0.13978196,0.97557439,0.00148624,-0.00011061,0.00709158,-0.00050217,-0.08521412,-0.07036478,0.99387464,0.17027668,-0.14231309,3.13043713
10146752,10.13622379,0.02717917,0.01252374,-0.00786064,-0.17100155,-0.13851337,0.97548570,-0.01039493,0.00740986,0.00327408,-0.00060932,-0.08598690,-0.06973781,0.99385232,0.17184614,-0.14105134,3.13064932
10179744,10.16921615,0.02677948,0.01239050,0.00532925,-0.17283450,-0.13907681,0.97508249,-0.00416745,-0.00203647,0.00782770,-0.00064876,-0.08691495,-0.07003244,0.99375085,0.17370676,-0.14167524,3.13054180
10212752,10.20222377,0.03264165,0.02025115,0.00053292,-0.17089519,-0.13918321,0.97540903,0.00707683,-0.00193007,0.01140738,-0.00057566,-0.08593723,-0.07007321,0.99383306,0.17173815,-0.14173536,3.13053011
10245764,10.23523616,0.03477335,0.01545482,-0.00839357,-0.17227463,-0.13772802,0.97537298,-0.00399490,0.00052099,0.01119930,-0.00068523,-0.08662480,-0.06935169,0.99382390,0.17313838,-0.14027807,3.13077759
10278748,10.26821994,0.02344870,0.01225727,0.00066616,-0.17414510,-0.13709926,0.97512931,0.00080526,0.00013638,-0.00198477,-0.00077675,-0.08756509,-0.06904834,0.99376258,0.17503755,-0.13968044,3.13088011
10311724,10.30119609,0.01838591,0.01092496,0.01732006,-0.17602752,-0.13749041,0.97473611,-0.00317170,-0.00166973,0.00939471,-0.00082550,-0.08851748,-0.06925712,0.99366359,0.17694952,-0.14012954,3.13080358
10344692,10.33416366,0.03543951,0.01092496,0.01185758,-0.17415995,-0.13704948,0.97513351,0.00741191,-0.00015755,0.02120435,-0.00078086,-0.08757222,-0.06902358,0.99376354,0.17505264,-0.13962973,3.13089179
10377732,10.36720371,0.03970291,0.02131700,0.01705360,-0.17241764,-0.13626799,0.97555265,-0.00067806,-0.00093904,0.01053131,-0.00075570,-0.08668845,-0.06862021,0.99386901,0.17328355,-0.13878489,3.13103938
10410716,10.40018844,0.03224196,0.00479632,0.01412251,-0.17185610,-0.13816645,0.97538499,0.00193423,-0.00392339,-0.00394946,-0.00065467,-0.08641594,-0.06956925,0.99382705,0.17271347,-0.14071705,3.13070797
10443672,10.43314361,0.00945942,0.01638744,-0.00039969,-0.17344434,-0.13695567,0.97527427,-0.00258104,0.00243419,-0.00188565,-0.00076184,-0.08721041,-0.06897197,0.99379901,0.17432595,-0.13951554,3.13091468
10476660,10.46613216,0.00839357,0.01159112,0.01172435,-0.17535900,-0.13719791,0.97489795,-0.01165272,-0.00293881,0.01045364,-0.00081788,-0.08817812,-0.06910615,0.99370431,0.17627041,-0.13981236,3.13086438
10509672,10.49914360,0.01958499,0.01372282,0.02398162,-0.17365291,-0.13634605,0.97532262,-0.00579044,-0.00476722,0.03688442,-0.00079833,-0.08731201,-0.06866771,0.99381113,0.17453773,-0.13889572,3.13102769
10542680,10.53215217,0.06141960,0.00652833,0.01545482,-0.17189079,-0.13724126,0.97550916,0.00343376,-0.00387201,0.00959825,-0.00069897,-0.08642792,-0.06910549,0.99385814,0.17274873,-0.13976948,3.13087701
10575672,10.56514358,0.02931087,-0.00373047,0.02424809,-0.17370367,-0.13785247,0.97510204,-0.00891352,-0.00228424,-0.01172310,-0.00073685,-0.08734609,-0.06942409,0.99375572,0.17458926,-0.14044166,3.13076448
10608688,10.59815979,0.03237519,0.01279020,0.02891118,-0.17483453,-0.13938663,0.97468128,-0.00119086,-0.00099424,0.00627571,-0.00071077,-0.08792572,-0.07020160,0.99364986,0.17573773,-0.14204428,3.13048887
10641672,10.63114356,0.02478101,0.01265697,0.01305666,-0.17460250,-0.14133905,0.97444181,-0.00069046,-0.00441290,0.00578278,-0.00061727,-0.08782028,-0.07118003,0.99358968,0.17550206,-0.14404165,3.13014101
10674720,10.66419219,0.02171669,0.00426340,0.01065850,-0.17296152,-0.14037036,0.97487430,0.00084238,-0.00001049,0.01340693,-0.00060208,-0.08698636,-0.07068297,0.99369850,0.17383577,-0.14300527,3.13032221
10707684,10.69715595,0.02784533,0.00879326,0.01132465,-0.17124067,-0.13954324,0.97529687,0.01352583,0.00551005,0.01982033,-0.00057785,-0.08611322,-0.07025665,0.99380483,0.17208883,-0.14211323,3.13047671
10740636,10.73010826,0.04476570,0.02518070,-0.01585452,-0.16982263,-0.14094097,0.97534389,0.00112146,-0.00163715,0.00170690,-0.00046543,-0.08540638,-0.07094894,0.99381675,0.17064969,-0.14351050,3.13023352
10773636,10.76310825,0.02651302,0.00213170,0.00146554,-0.17159035,-0.14003533,0.97516489,-0.00223777,-0.00181037,0.01262808,-0.00056655,-0.08629270,-0.07050570,0.99377164,0.17244377,-0.14262664,3.13038396
10806648,10.79611968,0.03197550,0.01558805,-0.00266462,-0.16969257,-0.14053294,0.97542552,-0.00047344,-0.00277761,0.01554126,-0.00047728,-0.08533843,-0.07074317,0.99383726,0.17051768,-0.14308886,3.13030314
10839708,10.82917976,0.03557274,-0.00732772,-0.01305666,-0.17152713,-0.14108091,0.97502536,-0.00474240,-0.00198549,0.00519925,-0.00051709,-0.08626717,-0.07102995,0.99373655,0.17237961,-0.14369730,3.13019609
10872736,10.86220836,0.02598009,-0.00053292,-0.00319755,-0.17337739,-0.14158154,0.97462530,-0.01046050,-0.00368212,0.00657588,-0.00056051,-0.08720373,-0.07129338,0.99363584,0.17425804,-0.14425857,3.13009810
10905764,10.89523601,0.02358193,-0.00919296,-0.00186524,-0.17277088,-0.13974529,0.97499809,-0.00227794,0.00229412,0.02451360,-0.00061861,-0.08688673,-0.07036763,0.99372968,0.17364220,-0.14235925,3.13042593
10938800,10.92827224,0.03210873,-0.01985145,0.02011792,-0.17466967,-0.14004180,0.97461719,-0.01649244,-0.00302461,0.00023627,-0.00067398,-0.08784655,-0.07052911,0.99363384,0.17557027,-0.14271221,3.13036775
10971832,10.96130371,0.02078407,-0.00452986,0.01185758,-0.17657990,-0.14028395,0.97423791,-0.00872283,-0.00253831,0.01038122,-0.00073126,-0.08881217,-0.07066354,0.99353828,0.17751072,-0.14301056,3.13031673
11004836,10.99430847,0.01332312,-0.06861409,0.03330781,-0.17813355,-0.13904411,0.97413291,-0.01522581,-0.00011604,0.04173624,-0.00084456,-0.08958889,-0.07005224,0.99351177,0.17908937,-0.14177860,3.13054203
11037804,11.02727603,0.10045636,-0.35666000,0.09232925,-0.17685301,-0.13756289,0.97457637,0.03158934,0.04845157,0.16018927,-0.00087696,-0.08893283,-0.06930136,0.99362335,0.17778818,-0.14022512,3.13083934
11070764,11.06023597,0.19878100,-0.34280397,-0.09539357,-0.17526109,-0.13640331,0.97502689,0.01534898,0.00749706,0.54889893,-0.00086652,-0.08812295,-0.06870836,0.99373664,0.17617096,-0.13899490,3.13104176
11103784,11.09325599,0.90797090,-0.32508420,0.03690505,-0.17354960,-0.13530517,0.97548570,-0.12723164,-0.11054443,1.02445328,-0.00084943,-0.08725336,-0.06814566,0.99385204,0.17443287,-0.13782603,3.13123178
11136768,11.12623977,2.14209198,-0.64030933,0.42487440,-0.17245705,-0.13328793,0.97595710,-0.06826560,0.02195981,0.90539054,-0.00091159,-0.08669003,-0.06712774,0.99397068,0.17332360,-0.13573176,3.13161659
11169700,11.15917205,3.37514710,-1.75372290,0.47563552,-0.17400753,-0.13324961,0.97568740,-0.17535769,-0.04179922,-0.17808002,-0.00097523,-0.08747165,-0.06711935,0.99390277,0.17489785,-0.13573026,3.13163709
11202720,11.19219207,2.88285751,0.05382542,0.68014550,-0.17467300,-0.13458755,0.97538461,0.17125504,-0.08611557,-1.59159564,-0.00095239,-0.08781405,-0.06779594,0.99382667,0.17557369,-0.13711822,3.13142228
11235724,11.22519588,0.71491885,2.28198480,-0.19638285,-0.17332481,-0.13536678,0.97551736,1.14036583,0.01012264,-2.52751922,-0.00081847,-0.08714165,-0.06817329,0.99386014,0.17420459,-0.13788359,3.13118028
11268748,11.25821971,-3.09029865,-0.21383614,-1.22146403,-0.17459745,-0.13732812,0.97501592,-0.14400606,-0.26037695,-2.53898072,-0.00072165,-0.08779897,-0.06916079,0.99373397,0.17549699,-0.13992661,3.13071513
11301836,11.29130840,-4.36572122,-0.19931393,-0.89504747,-0.17351617,-0.13981387,0.97485580,0.57830133,-0.67537164,-0.68847889,-0.00056800,-0.08726843,-0.07040046,0.99369392,0.17439892,-0.14244866,3.13026189
11334920,11.32439231,-4.24647951,3.57872438,-2.31049633,-0.17589483,-0.14118523,0.97423152,-1.24060904,-0.50163702,1.02570748,-0.00041695,-0.08848970,-0.07108898,0.99353685,0.17681474,-0.14391767,3.12965345
11368004,11.35747623,4.36558818,-2.13822817,1.78942880,-0.17742014,-0.14090552,0.97399568,-0.91681814,-0.36934838,1.02594327,-0.00059423,-0.08925004,-0.07096869,0.99347743,0.17836441,-0.14367074,3.12992000
11401016,11.39048767,4.29484224,-0.69147014,1.39879476,-0.17660787,-0.14198945,0.97398605,0.43075828,-0.19736600,-1.51036300,-0.00057758,-0.08884233,-0.07151266,0.99347505,0.17753908,-0.14476206,3.12984871
11434000,11.42347240,0.55770597,1.46780862,-0.05235988,-0.17524981,-0.14304900,0.97407636,0.67354083,-0.04420686,-1.56221113,-0.00045084,-0.08816570,-0.07203262,0.99349794,0.17615947,-0.14581379,3.12960100
11466972,11.45644378,-0.80818071,0.38597087,-0.47043952,-0.17473225,-0.14510183,0.97386541,0.16789631,-0.03434153,-0.71580882,-0.00030943,-0.08791986,-0.07305702,0.99344482,0.17563385,-0.14790766,3.12916970
11500036,11.48950767,-1.81194486,-0.24914240,-0.58355283,-0.17660577,-0.14553581,0.97346258,-0.15664618,0.02370964,-0.26887273,-0.00033999,-0.08886955,-0.07328596,0.99334344,0.17753697,-0.14840409,3.12904477
11533160,11.52263164,-1.55041193,0.38370597,-0.25993413,-0.17814102,-0.14446173,0.97334289,-0.33626327,0.02800666,0.87724304,-0.00044090,-0.08963782,-0.07275690,0.99331321,0.17909693,-0.14734253,3.12922692
11566160,11.55563163,0.29164316,-0.21983153,0.21690044,-0.17906792,-0.14265427,0.97343940,-0.23548285,0.09699997,0.69916801,-0.00057234,-0.09009308,-0.07185745,0.99333744,0.18003900,-0.14551090,3.12958765
11599176,11.58864784,0.73130631,-0.34973201,0.35772588,-0.18061118,-0.14132225,0.97334842,-0.07500406,0.07345116,-0.06734258,-0.00071089,-0.09086244,-0.07120175,0.99331445,0.18160785,-0.14418432,3.12987279
11632220,11.62169170,0.35972433,-0.02278254,0.30669832,-0.17867995,-0.14126354,0.97371339,0.18087721,0.04263073,-0.27644777,-0.00066546,-0.08988530,-0.07116079,0.99340639,0.17964468,-0.14407193,3.12993431
11665240,11.65471172,-0.16120979,-0.09899082,-0.03077642,-0.17672536,-0.14146662,0.97404041,0.15206716,0.02940609,-0.24918694,-0.00058804,-0.08889965,-0.07124953,0.99348869,0.17765851,-0.14422844,3.12990880
11698296,11.68776798,-0.36918377,0.06048698,-0.10578560,-0.17508111,-0.14058834,0.97446451,0.02493462,0.01217037,0.06069171,-0.00056448,-0.08806461,-0.07079731,0.99359540,0.17598817,-0.14328374,3.13006663
11731356,11.72082805,-0.16041041,0.12230628,-0.12656967,-0.17481467,-0.13869469,0.97478361,-0.01952127,0.03835289,0.16950350,-0.00062884,-0.08791946,-0.06984436,0.99367561,0.17571759,-0.14133391,3.13038825
11764412,11.75388431,0.07247780,0.00452986,-0.00572894,-0.17660761,-0.13784240,0.97458152,-0.15176152,0.02749084,0.17947125,-0.00072726,-0.08881957,-0.06942843,0.99362478,0.17753882,-0.14050557,3.13053059
11797380,11.78685188,0.29590659,0.01545482,0.10845023,-0.17671532,-0.13582485,0.97484531,-0.01249365,0.03133267,0.06275237,-0.00082511,-0.08886183,-0.06841740,0.99369106,0.17764824,-0.13843843,3.13090467
11830324,11.81979560,0.23928329,-0.01358959,0.03903675,-0.17764325,-0.13401526,0.97492675,-0.00399737,0.04002112,-0.06574708,-0.00093706,-0.08932006,-0.06751591,0.99371137,0.17859114,-0.13660573,3.13122892
11863324,11.85279560,0.12723582,-0.09672588,0.10525268,-0.17936732,-0.13303682,0.97474527,-0.02326939,0.03196260,-0.08509684,-0.00104706,-0.09018474,-0.06703748,0.99366569,0.18034333,-0.13564556,3.13141679
11896340,11.88581180,-0.03477335,0.10471976,0.00759418,-0.17755210,-0.13249387,0.97515153,0.09942710,0.03923216,-0.09893084,-0.00101080,-0.08926488,-0.06675318,0.99376792,0.17849850,-0.13504312,3.13152408
11929332,11.91880416,-0.11178101,0.01412251,-0.07580858,-0.17655360,-0.13087910,0.97555074,0.02005947,0.04054707,0.05887312,-0.00104492,-0.08875211,-0.06593660,0.99386825,0.17748397,-0.13336288,3.13181185
11962300,11.95177173,-0.01052527,-0.00253139,-0.04489892,-0.17752646,-0.12913746,0.97560606,-0.04220010,0.04368825,0.07126892,-0.00115063,-0.08923429,-0.06506950,0.99388208,0.17847246,-0.13160138,3.13211631
11995364,11.98483562,0.07980552,0.08646708,-0.01692037,-0.17745180,-0.12716443,0.97587890,-0.00663023,0.04684217,0.05732423,-0.00123288,-0.08918642,-0.06407982,0.99395065,0.17839656,-0.12957746,3.13246846
12028384,12.01785564,0.11071517,-0.00546248,-0.00519602,-0.17926960,-0.12638196,0.97564811,-0.05266398,0.01822767,0.01238894,-0.00132370,-0.09010079,-0.06369930,0.99389247,0.18024406,-0.12881909,3.13259935
12061384,12.05085563,0.08753293,0.03610566,0.05182695,-0.18113284,-0.12571579,0.97539033,-0.03834958,0.01951462,-0.03764617,-0.00141557,-0.09103863,-0.06337797,0.99382753,0.18213823,-0.12818102,3.13271975
12094356,12.08382797,0.01745329,0.09939050,0.01039204,-0.18100873,-0.12375624,0.97566366,0.00766890,0.04050428,-0.02156210,-0.00150059,-0.09096599,-0.06239548,0.99389610,0.18201208,-0.12616937,3.13308310
12127252,12.11672401,0.02158346,-0.02558040,0.01092496,-0.18151784,-0.12183041,0.97581148,-0.01184152,0.03198666,0.01759672,-0.00160495,-0.09121371,-0.06143431,0.99393310,0.18252978,-0.12420766,3.13344025
12160208,12.14968013,0.01745329,0.05635682,0.01025880,-0.18179617,-0.11986429,0.97600336,-0.01009835,0.04564554,0.02375251,-0.00170331,-0.09134491,-0.06045157,0.99398126,0.18281278,-0.12219945,3.13380503
12193160,12.18263244,0.07194488,-0.00319755,-0.00559571,-0.18177293,-0.11788246,0.97624893,-0.00304152,0.03511878,0.02326274,-0.00179186,-0.09132395,-0.05945907,0.99404287,0.18278911,-0.12016861,3.13417124
12226168,12.21564006,0.03437366,-0.02158346,-0.00226493,-0.18250399,-0.11602053,0.97633571,-0.00841397,0.03496583,-0.02174586,-0.00189818,-0.09168510,-0.05853171,0.99406452,0.18353265,-0.11827795,3.13451457
12259124,12.24859619,-0.01518836,0.02771210,-0.03077642,-0.18119117,-0.11463493,0.97674379,0.02811501,0.02942985,0.00567806,-0.00192100,-0.09101539,-0.05782961,0.99416713,0.18219757,-0.11682990,3.13477253
12292084,12.28155612,0.02131700,0.09006432,-0.05595712,-0.18258552,-0.11319097,0.97665271,-0.03054924,0.01724370,0.04580825,-0.00202084,-0.09171442,-0.05711529,0.99414405,0.18361555,-0.11538207,3.13502359
12325016,12.31448841,0.06128637,0.07567535,0.00413017,-0.18452047,-0.11287264,0.97632560,-0.07426860,0.00496248,0.03636974,-0.00208904,-0.09269168,-0.05696826,0.99406156,0.18558396,-0.11509867,3.13507294
12357976,12.34744834,0.09019755,0.12350536,0.02984380,-0.18618426,-0.11174457,0.97613954,-0.02231184,0.01848285,-0.01666689,-0.00218842,-0.09352848,-0.05641463,0.99401454,0.18727706,-0.11397986,3.13528013
12390968,12.38043975,0.05395865,0.08473506,0.00852680,-0.18806840,-0.11115714,0.97584552,-0.03605267,0.01130362,-0.00660723,-0.00226769,-0.09447942,-0.05613296,0.99394044,0.18919510,-0.11341967,3.13538289
12423904,12.41337585,0.04503216,-0.01718683,0.06022052,-0.18942823,-0.10968912,0.97574815,-0.02248582,0.02839030,-0.01529896,-0.00237958,-0.09516128,-0.05540813,0.99391565,0.19057989,-0.11194541,3.13567018
12456848,12.44631958,0.03064318,0.05235988,0.02105054,-0.18934024,-0.10771429,0.97598543,-0.00353084,0.03056585,0.03085053,-0.00247234,-0.09510860,-0.05442016,0.99397506,0.19049024,-0.10991981,3.13605570
12489796,12.47926807,0.06901378,-0.00466309,0.07434303,-0.19099998,-0.10662142,0.97578201,-0.03214454,0.01482454,0.02226484,-0.00257437,-0.09594426,-0.05388512,0.99392375,0.19218081,-0.10883587,3.13627219
12522736,12.51220798,0.04036906,-0.02318224,0.03837059,-0.18948115,-0.10545290,0.97620477,0.05349483,0.03880251,-0.04090208,-0.00259286,-0.09517058,-0.05329136,0.99402990,0.19063376,-0.10760607,3.13651180
12555720,12.54519176,-0.04583154,0.06501685,-0.00932619,-0.19025243,-0.10361258,0.97625198,0.00104345,0.02280203,-0.04314649,-0.00270030,-0.09555415,-0.05237640,0.99404153,0.19141933,-0.10573722,3.13686513
12588740,12.57821178,-0.07833998,0.02891118,-0.01532159,-0.19194775,-0.10260535,0.97602653,-0.04389208,0.02008582,0.02372932,-0.00279232,-0.09640894,-0.05188398,0.99398460,0.19314645,-0.10474085,3.13705515
12621728,12.61120033,-0.00452986,-0.01159112,0.04276723,-0.19353976,-0.10142633,0.97583541,-0.03131375,0.00669976,0.06347120,-0.00289402,-0.09721087,-0.05130560,0.99393625,0.19476888,-0.10356607,3.13728928
12654732,12.64420413,0.04756355,0.08779939,0.03783767,-0.19486747,-0.09991503,0.97572708,-0.01191963,0.00885057,0.01377487,-0.00300303,-0.09787813,-0.05055942,0.99390869,0.19612239,-0.10204492,3.13758802
12687680,12.67715167,0.05315927,0.03930321,0.04063552,-0.19619370,-0.09840942,0.97561454,-0.00986098,0.00270630,0.02536201,-0.00311219,-0.09854490,-0.04981627,0.99388008,0.19747467,-0.10052913,3.13788866
12720644,12.71011638,0.07034610,-0.00759418,0.04063552,-0.19486342,-0.09701608,0.97602033,0.01346694,0.01303171,-0.00507307,-0.00315069,-0.09786594,-0.04911194,0.99398193,0.19611824,-0.09907423,3.13817787
12753620,12.74309158,0.00346401,0.05116080,-0.01172435,-0.19452526,-0.09508070,0.97627830,0.00702527,0.01451430,-0.02266502,-0.00323601,-0.09768843,-0.04814309,0.99404659,0.19577348,-0.09708481,3.13856220
12786552,12.77602386,0.00706126,0.03197550,-0.03317458,-0.19522344,-0.09320560,0.97631959,-0.00912225,0.01215091,0.02001828,-0.00334143,-0.09803665,-0.04721098,0.99405660,0.19648532,-0.09517784,3.13892769
12819492,12.80896377,0.02651302,-0.00133231,-0.02344870,-0.19415872,-0.09158903,0.97668485,0.00446145,0.00662809,0.00085419,-0.00339360,-0.09749240,-0.04639687,0.99414825,0.19539980,-0.09350197,3.13924884
12852448,12.84191989,0.00919296,-0.05235988,-0.02318224,-0.19606945,-0.09167325,0.97629537,-0.03952625,-0.00378574,0.01686865,-0.00343154,-0.09846115,-0.04645086,0.99405021,0.19734794,-0.09362457,3.13922166
12885512,12.87498378,0.04276723,-0.01452220,0.00399694,-0.19761751,-0.09043376,0.97609882,-0.01795867,0.00742595,0.02536607,-0.00352784,-0.09924244,-0.04584202,0.99400043,0.19892693,-0.09238442,3.13946509
12918488,12.90795993,0.05489127,0.14055895,-0.02504747,-0.19955730,-0.09018324,0.97572727,-0.05752277,0.00326917,0.02402854,-0.00357994,-0.10022563,-0.04572905,0.99390687,0.20090610,-0.09216484,3.13950037
12951416,12.94088840,0.11471210,0.08646708,0.05529096,-0.20147943,-0.09034254,0.97531719,-0.09954596,-0.01414965,0.04567885,-0.00361714,-0.10120106,-0.04582126,0.99380350,0.20286815,-0.09236531,3.13946413
12984368,12.97383975,0.16374120,-0.01492190,0.09219602,-0.20273571,-0.09176248,0.97492456,-0.00942250,-0.00833517,0.01579809,-0.00357838,-0.10184242,-0.04653863,0.99370489,0.20415084,-0.09384618,3.13917493
13017344,13.00681591,0.12577028,0.05062787,0.00839357,-0.20083806,-0.09205501,0.97528944,0.04947087,-0.00267155,-0.03510391,-0.00351810,-0.10088061,-0.04667192,0.99379692,0.20221338,-0.09410857,3.13911819
13050328,13.03979969,0.06861409,0.07660796,-0.00519602,-0.20122084,-0.09008383,0.97539453,-0.00410143,0.01073813,0.00995701,-0.00362442,-0.10106914,-0.04569046,0.99382295,0.20260415,-0.09209505,3.13951849
13083288,13.07275962,0.08420215,0.07394334,-0.05369219,-0.19967401,-0.08896944,0.97581501,0.05050409,0.03550263,0.01002485,-0.00363961,-0.10028162,-0.04512366,0.99392871,0.20102522,-0.09092310,3.13974022
13116228,13.10569953,0.05742266,-0.03637212,-0.08793262,-0.20111262,-0.08760326,0.97564268,-0.03375065,0.02168528,0.03216982,-0.00373208,-0.10100810,-0.04445041,0.99388494,0.20249369,-0.08955016,3.13999891
13149228,13.13869953,0.12203981,0.03130934,-0.06634916,-0.20273613,-0.08645848,0.97540884,-0.05800605,0.03103855,0.03264779,-0.00381761,-0.10182924,-0.04388896,0.99382581,0.20415134,-0.08840715,3.14021372
13182212,13.17168426,0.13189892,0.15254976,0.01438897,-0.20468080,-0.08643287,0.97500524,-0.04898131,0.00220435,-0.03555208,-0.00385855,-0.10281631,-0.04388859,0.99372415,0.20613758,-0.08841751,3.14020705
13215248,13.20471954,0.10098929,-0.01945176,0.10125575,-0.20643630,-0.08555257,0.97471237,-0.05332933,0.01914632,0.02846146,-0.00394865,-0.10370506,-0.04346176,0.99365005,0.20793142,-0.08754776,3.14039969
13248220,13.23769187,0.15268301,-0.14282388,0.09392803,-0.20510087,-0.08412374,0.97511873,0.03371414,0.02821553,-0.04933751,-0.00400086,-0.10302312,-0.04274109,0.99375209,0.20656681,-0.08605717,3.14071917
13281188,13.27066040,0.01665390,0.10884993,0.03837059,-0.20588252,-0.08227063,0.97511205,-0.01189092,0.02929211,-0.00074685,-0.00411507,-0.10341551,-0.04182226,0.99375000,0.20736548,-0.08417109,3.14111089
13314128,13.30360031,0.07980552,0.08033844,0.07754058,-0.20475714,-0.08069692,0.97548055,0.01505987,0.02698598,0.03867960,-0.00417818,-0.10284038,-0.04103079,0.99384241,0.20621559,-0.08253735,3.14145541
13347076,13.33654785,0.08446861,-0.16640582,0.01345635,-0.20473353,-0.07869520,0.97564907,0.00014369,0.02132215,0.00066930,-0.00428188,-0.10282419,-0.04003271,0.99388437,0.20619149,-0.08048509,3.14187741
13380092,13.36956405,0.07913936,-0.03703828,0.00013323,-0.20640892,-0.07767044,0.97537784,-0.02308327,0.01224074,0.00435847,-0.00436635,-0.10367299,-0.03953237,0.99381570,0.20790348,-0.07946343,3.14208507
13413092,13.40256404,0.06967994,0.03837059,0.00532925,-0.20508923,-0.07626669,0.97576723,0.02735485,0.02499715,-0.01946843,-0.00441281,-0.10300019,-0.03882416,0.99391355,0.20655491,-0.07800215,3.14238357
13446024,13.43549633,0.02677948,-0.08513477,-0.04649770,-0.20603284,-0.07451104,0.97570409,-0.01589099,0.02690361,0.00354391,-0.00451763,-0.10347645,-0.03795462,0.99389724,0.20751907,-0.07621850,3.14274263
13479040,13.46851158,0.03250842,-0.00253139,-0.02797856,-0.20679516,-0.07265810,0.97568244,-0.00682789,0.02602723,-0.01645398,-0.00462491,-0.10386075,-0.03703563,0.99389123,0.20829818,-0.07433179,3.14312601
13512096,13.50156784,-0.02664625,0.01478867,-0.05249311,-0.20612363,-0.07082280,0.97595939,0.01178770,0.01540287,-0.03137934,-0.00470441,-0.10351710,-0.03611651,0.99396047,0.20761189,-0.07244039,3.14350843
13545128,13.53460025,-0.02624655,-0.06062021,-0.03903675,-0.20517053,-0.06912403,0.97628231,0.00375451,0.02224903,0.05472356,-0.00477342,-0.10303084,-0.03526394,0.99404144,0.20663790,-0.07068537,3.14386439
13578116,13.56758785,0.04116845,0.00226493,-0.03197550,-0.20485639,-0.06716388,0.97648496,0.00344038,0.01906818,0.00007755,-0.00486587,-0.10286914,-0.03428504,0.99409189,0.20631699,-0.06867312,3.14426994
13611064,13.60053634,-0.02811179,-0.06221899,-0.07420980,-0.20297219,-0.06679060,0.97690372,0.01864603,0.00429060,-0.01547790,-0.00484842,-0.10191221,-0.03408720,0.99419727,0.20439240,-0.06826345,3.14434266
13644112,13.63358402,0.00759418,-0.08033844,-0.05062787,-0.20485033,-0.06706765,0.97649250,-0.04759107,-0.00934837,0.05548996,-0.00486129,-0.10286629,-0.03423609,0.99409379,0.20631084,-0.06857451,3.14427113
13677152,13.66662406,0.06967994,0.01332312,-0.00799387,-0.20675513,-0.06724848,0.97607870,-0.01809837,-0.00184332,-0.00391072,-0.00488160,-0.10383403,-0.03433750,0.99398965,0.20825729,-0.06878787,3.14422321
13710124,13.69959640,0.01159112,0.04569831,-0.02784533,-0.20865139,-0.06752628,0.97565593,-0.01937595,-0.00278622,-0.00641769,-0.00489595,-0.10479788,-0.03448717,0.99388322,0.21019582,-0.06910097,3.14415264
13743088,13.73256015,0.02877795,-0.07620828,0.02917764,-0.21053199,-0.06775999,0.97523584,-0.01896019,-0.00304079,0.01158053,-0.00491756,-0.10575382,-0.03461544,0.99377746,0.21211912,-0.06936913,3.14410138
13776080,13.76555156,0.01265697,-0.00599541,0.00879326,-0.20882217,-0.06691094,0.97566165,0.02815811,0.01320000,-0.01399177,-0.00493436,-0.10488383,-0.03418204,0.99388446,0.21037044,-0.06847286,3.14429020
13809056,13.79852771,-0.03370750,0.02184992,-0.03783767,-0.20693101,-0.06667781,0.97608051,0.02114000,0.00149227,0.03490579,-0.00491260,-0.10392279,-0.03405411,0.99398994,0.20843706,-0.06820583,3.14434027
13842072,13.83154392,0.07727412,-0.08366923,-0.02624655,-0.20540263,-0.06548712,0.97648401,0.00960186,0.01299688,0.06282264,-0.00494625,-0.10314532,-0.03345140,0.99409122,0.20687510,-0.06696393,3.14458990
13875040,13.86451244,0.07554212,-0.04743032,-0.06368453,-0.20390694,-0.06425955,0.97687873,0.02153389,0.01274587,-0.04328495,-0.00497911,-0.10238482,-0.03283029,0.99419031,0.20534713,-0.06568583,3.14483857
13908040,13.89751243,0.02624655,0.05955436,-0.03783767,-0.20583286,-0.06429791,0.97647266,-0.03904018,-0.00308490,0.02987498,-0.00500372,-0.10336307,-0.03286042,0.99408826,0.20731470,-0.06575221,3.14481687
13941036,13.93050765,0.06688208,-0.04649770,-0.02438132,-0.20392131,-0.06409413,0.97688684,0.03668499,0.00354725,0.01188266,-0.00498100,-0.10239220,-0.03274726,0.99419240,0.20536174,-0.06551670,3.14485931
13974060,13.96353244,0.03050996,-0.14135835,-0.03503981,-0.20475981,-0.06584480,0.97659511,0.00114654,-0.00422356,-0.01931977,-0.00490157,-0.10281972,-0.03362411,0.99411954,0.20621829,-0.06732093,3.14448499
14007084,13.99655628,0.02291577,-0.01105819,-0.00426340,-0.20304396,-0.06678442,0.97688903,0.00895217,-0.01085230,0.03507381,-0.00482450,-0.10194951,-0.03408195,0.99419364,0.20446569,-0.06825817,3.14429259
14040056,14.02952766,0.03144257,0.07087903,-0.02664625,-0.20114924,-0.06659629,0.97729396,0.02146174,0.00238731,-0.00244045,-0.00479942,-0.10098762,-0.03397664,0.99429569,0.20253105,-0.06803837,3.14433026
14073028,14.06250000,0.04942879,-0.14482234,-0.01052527,-0.20253210,-0.06519497,0.97710304,-0.01402064,0.00269497,0.04023093,-0.00489234,-0.10168819,-0.03328647,0.99424724,0.20394291,-0.06662397,3.14461398
14106080,14.09555244,0.06435069,-0.11644411,0.03384073,-0.20059218,-0.06520972,0.97750196,0.03433241,0.00051245,-0.00801951,-0.00486263,-0.10070346,-0.03328267,0.99434766,0.20196237,-0.06661188,3.14462113
14139076,14.12854766,0.00746095,-0.10964931,-0.02664625,-0.19867532,-0.06494618,0.97791090,0.04926126,0.00757314,-0.00964922,-0.00484334,-0.09973060,-0.03314003,0.99445056,0.20000615,-0.06631580,3.14467692
14172064,14.16153621,0.00692802,-0.20211176,-0.02837825,-0.19709981,-0.06379449,0.97830543,-0.00504862,-0.00114692,0.03072781,-0.00487420,-0.09893044,-0.03255690,0.99454956,0.19839885,-0.06511697,3.14491128
14205068,14.19454002,0.02651302,-0.16001071,-0.01385605,-0.19514900,-0.06376707,0.97869806,0.06306893,0.00102292,0.00836247,-0.00484400,-0.09794106,-0.03253206,0.99464836,0.19640945,-0.06506302,3.14492034
14238044,14.22751617,-0.02184992,-0.07327718,-0.07967228,-0.19323683,-0.06348868,0.97909564,0.05651809,0.00855704,0.00967383,-0.00482156,-0.09697154,-0.03238195,0.99474849,0.19446012,-0.06475354,3.14496850
14271128,14.26060009,0.02318224,-0.16800460,-0.08380245,-0.19159070,-0.06244320,0.97948617,-0.00518663,-0.00078922,0.04126578,-0.00483994,-0.09613664,-0.03185104,0.99484643,0.19278264,-0.06366481,3.14516472
14304116,14.29358768,0.03703828,-0.01771975,-0.07767382,-0.18965989,-0.06257348,0.97985372,0.05245286,-0.00432105,0.01892555,-0.00479669,-0.09515851,-0.03190465,0.99493904,0.19081578,-0.06377343,3.14512968
14337100,14.32657241,0.05702297,-0.01012557,-0.15734610,-0.18774158,-0.06236628,0.98023653,0.04467518,0.00474909,0.00828886,-0.00476248,-0.09418699,-0.03178952,0.99503545,0.18886233,-0.06353807,3.14514517
14370112,14.35958385,0.03184226,-0.04623124,-0.12057427,-0.18581293,-0.06263356,0.98058652,0.05177972,-0.00719066,0.00867128,-0.00470962,-0.09321070,-0.03191138,0.99512357,0.18689918,-0.06378692,3.14507770
14403156,14.39262771,0.01931853,-0.01492190,-0.12203981,-0.18387747,-0.06260425,0.98095331,0.02005913,0.00181323,-0.02172482,-0.00467036,-0.09223107,-0.03188542,0.99521598,0.18492975,-0.06373337,3.14506626
14436144,14.42561626,0.00679479,-0.00599541,-0.15588054,-0.18195157,-0.06286726,0.98129539,0.03595547,-0.00695696,0.03091163,-0.00461489,-0.09125679,-0.03200513,0.99530210,0.18297082,-0.06397815,3.14499449
14469104,14.45857620,0.02038438,-0.04876263,-0.14588820,-0.18000716,-0.06298282,0.98164672,0.02986068,-0.00391171,0.03495484,-0.00456694,-0.09027332,-0.03205142,0.99539060,0.18099376,-0.06407256,3.14495253
14502120,14.49159240,0.04449923,0.07500919,-0.20997242,-0.17810488,-0.06334057,0.98197040,0.04822208,-0.00965748,0.01461160,-0.00450202,-0.08931180,-0.03221824,0.99547214,0.17906027,-0.06441430,3.14485311
14535124,14.52459621,0.04663093,0.08406891,-0.23382081,-0.17633368,-0.06416208,0.98223676,0.05060128,-0.01908988,-0.02178759,-0.00441629,-0.08841719,-0.03261700,0.99553947,0.17726058,-0.06522974,3.14466619
14568140,14.55761241,-0.00519602,0.08393568,-0.24847624,-0.17815246,-0.06484882,0.98186388,-0.03205260,-0.01205548,-0.02263534,-0.00439318,-0.08933825,-0.03296702,0.99544601,0.17910854,-0.06595087,3.14449501
14601164,14.59063625,-0.02598009,0.10432007,-0.24781010,-0.17623005,-0.06485078,0.98221063,0.05635701,0.00039765,0.00875616,-0.00434084,-0.08836668,-0.03295618,0.99553327,0.17715524,-0.06592965,3.14445590
14634144,14.62361621,-0.07927259,0.19398468,-0.45751609,-0.17444131,-0.06561836,0.98247852,0.03918740,-0.01616876,0.00775582,-0.00423908,-0.08746415,-0.03332655,0.99560089,0.17533840,-0.06668954,3.14424443
14667212,14.65668392,0.00279786,0.17253445,-0.44246096,-0.17359085,-0.06742915,0.98250665,-0.00463180,-0.01850836,0.06534487,-0.00410693,-0.08703709,-0.03422231,0.99560852,0.17447472,-0.06852227,3.14384746
14700224,14.68969631,0.01292343,0.15454822,-0.46044716,-0.17372574,-0.06942507,0.98234405,0.00233904,-0.01675657,-0.02042997,-0.00398158,-0.08710871,-0.03521543,0.99556827,0.17461170,-0.07055556,3.14341306
14733204,14.72267627,-0.09286218,0.24034914,-0.53332467,-0.17550844,-0.07027733,0.98196620,-0.06008727,-0.02811135,-0.00735688,-0.00392968,-0.08801252,-0.03564587,0.99547357,0.17642223,-0.07144615,3.14316630
14766276,14.75574779,-0.03224196,0.28658041,-0.39130015,-0.17730046,-0.07111222,0.98158416,-0.04730891,-0.02166122,0.03013462,-0.00388955,-0.08892095,-0.03606869,0.99537773,0.17824280,-0.07232003,3.14294266
14799332,14.78880405,0.03690505,0.20477640,-0.52186675,-0.17551088,-0.07185983,0.98185148,0.05124330,-0.02506400,0.03792393,-0.00377803,-0.08801871,-0.03642837,0.99544534,0.17642468,-0.07305783,3.14271903
14832316,14.82178783,0.12577028,0.26952681,-0.71145482,-0.17416372,-0.07328958,0.98198547,0.03280631,-0.03706199,0.01606143,-0.00362658,-0.08734205,-0.03712938,0.99547948,0.17505646,-0.07449597,3.14233851
14865300,14.85477161,0.10645176,0.18292648,-0.57782387,-0.17606434,-0.07374534,0.98161211,-0.16426768,-0.03929177,-0.05387777,-0.00358929,-0.08830553,-0.03736202,0.99538593,0.17698693,-0.07498589,3.14214825
14898340,14.88781166,0.01358959,0.12643644,-0.39836139,-0.17579269,-0.07572945,0.98150978,0.00220871,-0.02851860,0.00896877,-0.00346153,-0.08817268,-0.03834784,0.99536056,0.17671098,-0.07700353,3.14172315
14931332,14.92080402,0.06448392,0.03344104,-0.40808730,-0.17728981,-0.07695349,0.98114528,-0.03999534,-0.02973597,0.03447973,-0.00339961,-0.08893317,-0.03896340,0.99526929,0.17823197,-0.07827208,3.14142680
14964320,14.95379161,0.09526034,0.00746095,-0.29097700,-0.17901144,-0.07780519,0.98076553,-0.08026591,-0.03987059,-0.00688863,-0.00336823,-0.08980643,-0.03939521,0.99517402,0.17998157,-0.07916530,3.14121460
14997308,14.98678016,0.03090965,0.07887290,-0.20624194,-0.17827589,-0.07966180,0.98075027,0.01616652,-0.04265265,0.00435716,-0.00325176,-0.08943880,-0.04031644,0.99517049,0.17923403,-0.08104744,3.14084100
15030240,15.01971244,0.07261103,0.06381777,-0.27592186,-0.17966674,-0.08100775,0.98038635,-0.03078248,-0.02812311,0.01277775,-0.00319412,-0.09014601,-0.04099353,0.99507932,0.18064767,-0.08244112,3.14054155
15063248,15.05272006,0.06408423,-0.01425574,-0.21969833,-0.18137189,-0.08188337,0.97999954,-0.08522967,-0.04409319,-0.04323196,-0.00316923,-0.09101131,-0.04143805,0.99498224,0.18238133,-0.08336088,3.14033579
15096304,15.08577632,-0.05102756,0.11631088,-0.09859111,-0.18274635,-0.08327046,0.97962751,-0.03258568,-0.03318462,-0.01014507,-0.00312565,-0.09171020,-0.04213725,0.99488897,0.18377909,-0.08479833,3.14005732
15129340,15.11881160,0.00119908,0.07687443,-0.13189892,-0.18439221,-0.08428428,0.97923192,-0.04827380,-0.02826455,0.04225248,-0.00310144,-0.09254604,-0.04265140,0.99478950,0.18545351,-0.08586021,3.13983869
15162236,15.15170764,0.06008729,0.02145023,-0.16627258,-0.18322374,-0.08589773,0.97931108,0.01916126,-0.03031322,0.01238811,-0.00298672,-0.09195940,-0.04344902,0.99480981,0.18426475,-0.08748849,3.13950872
15195176,15.18464756,0.00079939,0.08473506,-0.14255743,-0.18489351,-0.08687106,0.97891130,-0.05656156,-0.03300199,-0.01040548,-0.00296486,-0.09280748,-0.04394317,0.99470939,0.18596352,-0.08851065,3.13929486
15228168,15.21763992,0.01638744,0.15481469,-0.18132771,-0.18440900,-0.08880539,0.97882947,0.00691877,-0.01910476,-0.00959116,-0.00284749,-0.09256825,-0.04490476,0.99468917,0.18547053,-0.09047841,3.13889765
15261176,15.25064754,0.01532159,0.03357427,-0.25327258,-0.18609230,-0.08973253,0.97842597,-0.03656394,-0.02013076,-0.01675606,-0.00281987,-0.09342383,-0.04537528,0.99458780,0.18718349,-0.09145527,3.13867259
15294188,15.28365993,-0.00666156,0.04276723,-0.19358499,-0.18780284,-0.09061143,0.97801799,-0.06634754,-0.03390029,-0.01976603,-0.00280027,-0.09429311,-0.04582245,0.99448528,0.18892477,-0.09238428,3.13846516
15327192,15.31666374,-0.04649770,0.15041806,-0.23355436,-0.18920383,-0.09196619,0.97762145,-0.03589383,-0.03181311,0.02408749,-0.00274774,-0.09500753,-0.04650524,0.99438581,0.19035127,-0.09379535,3.13815855
15360208,15.34967994,0.04116845,0.07434303,-0.17386675,-0.19083354,-0.09298414,0.97720813,-0.08138326,-0.04934984,0.04989147,-0.00272075,-0.09583684,-0.04702169,0.99428186,0.19201129,-0.09486723,3.13792276
15393200,15.38267230,0.08366923,0.03877029,-0.13856048,-0.19251661,-0.09388876,0.97679157,-0.06187792,-0.03355264,-0.00047320,-0.00270303,-0.09669298,-0.04748222,0.99417724,0.19372611,-0.09582517,3.13771224
15426208,15.41567993,0.04290046,0.18505819,-0.21370291,-0.19398547,-0.09515075,0.97637882,-0.03111218,-0.02887269,-0.03082216,-0.00265590,-0.09744243,-0.04811934,0.99407358,0.19522321,-0.09714593,3.13741588
15459188,15.44865989,0.04130168,0.13816080,-0.23648545,-0.19509923,-0.09674027,0.97600040,-0.03292811,-0.04510543,0.00398004,-0.00258291,-0.09801345,-0.04891785,0.99397859,0.19635868,-0.09879638,3.13705086
15492148,15.48161983,0.01292343,0.12803521,-0.18039510,-0.19652413,-0.09804214,0.97558460,-0.03736259,-0.03623521,-0.03246939,-0.00253679,-0.09874119,-0.04957525,0.99387407,0.19781173,-0.10015950,3.13675045
15525132,15.51460361,0.02904441,0.17959570,-0.30430011,-0.19521562,-0.09952843,0.97569675,0.01430742,-0.02132118,0.01844382,-0.00240343,-0.09808497,-0.05030670,0.99390258,0.19647735,-0.10165593,3.13640165
15558116,15.54758834,0.13789433,0.32241959,-0.42820520,-0.19492504,-0.10148165,0.97555389,-0.00063160,-0.03694609,0.03006131,-0.00225882,-0.09794740,-0.05127654,0.99386711,0.19618103,-0.10365183,3.13592910
15591124,15.58059597,0.14415619,0.37504596,-0.47656812,-0.19673860,-0.10220884,0.97511386,-0.07254851,-0.03060366,-0.00611973,-0.00222313,-0.09887179,-0.05164668,0.99375648,0.19803041,-0.10443598,3.13568282
15624096,15.61356830,0.14175803,0.17386675,-0.43246860,-0.19845598,-0.10306501,0.97467555,-0.08938583,-0.04561663,-0.03766381,-0.00218424,-0.09974801,-0.05208129,0.99364624,0.19978236,-0.10535140,3.13542056
15657104,15.64657592,0.00359724,0.04689740,-0.26166615,-0.20014905,-0.10394667,0.97423572,-0.07621813,-0.03936388,-0.04503655,-0.00216120,-0.10061138,-0.05253035,0.99353570,0.20151009,-0.10629348,3.13518714
15690068,15.67953968,-0.06728178,0.01252374,-0.13789433,-0.20198085,-0.10448155,0.97380027,-0.12565586,-0.03687587,-0.00114405,-0.00217136,-0.10154330,-0.05280842,0.99342613,0.20338010,-0.10688370,3.13504719
15723104,15.71257591,-0.02304901,-0.07154518,0.03503981,-0.20383188,-0.10488636,0.97337083,-0.14113880,-0.03378552,0.02296704,-0.00220321,-0.10248394,-0.05302328,0.99331789,0.20527043,-0.10734162,3.13496232
15756132,15.74560356,0.04703063,-0.00866003,0.02291577,-0.20555343,-0.10567233,0.97292385,-0.06300125,-0.02958158,0.03147071,-0.00220922,-0.10336099,-0.05342752,0.99320535,0.20702924,-0.10818906,3.13479113
15789068,15.77853965,0.09126340,0.02637979,0.00146554,-0.20682868,-0.10708005,0.97249965,-0.05244864,-0.05600590,0.00552768,-0.00216836,-0.10401480,-0.05413918,0.99309873,0.20833249,-0.10966629,3.13448309
15821996,15.81146812,0.04170137,0.09339511,0.06315162,-0.20866832,-0.10760053,0.97204895,-0.16096056,-0.04596393,-0.05798650,-0.00219426,-0.10495100,-0.05441225,0.99298515,0.21021316,-0.11024572,3.13437008
15854996,15.84446811,0.01332312,0.11711026,0.13509647,-0.20996601,-0.10900793,0.97161273,-0.03539531,-0.03820887,-0.00286269,-0.00216532,-0.10561611,-0.05512540,0.99287538,0.21154022,-0.11172558,3.13408064
15888024,15.87749576,0.04942879,0.05169372,0.08673354,-0.21180176,-0.10950474,0.97115831,-0.05968261,-0.01696010,-0.00826770,-0.00219519,-0.10655062,-0.05538722,0.99276094,0.21341819,-0.11228258,3.13397526
15920960,15.91043186,0.05582389,0.00759418,0.21077182,-0.21359474,-0.11010491,0.97069778,-0.11721580,-0.04077400,-0.02269978,-0.00222890,-0.10746362,-0.05570168,0.99264488,0.21525316,-0.11294590,3.13386750
15953892,15.94336414,0.00053292,0.22622663,0.19518376,-0.21505250,-0.11135470,0.97023334,-0.01834592,-0.01681913,-0.01222551,-0.00221606,-0.10820996,-0.05633811,0.99252796,0.21674563,-0.11427108,3.13361215
15986852,15.97632408,-0.02078407,0.17986216,0.15814547,-0.21699018,-0.11141467,0.96979494,-0.09209185,-0.00992323,0.04656249,-0.00227882,-0.10919460,-0.05638370,0.99241743,0.21873016,-0.11438331,3.13361191
16019844,16.00931549,0.13429708,-0.05062787,0.31695711,-0.21887044,-0.11161044,0.96934967,-0.10046548,-0.01924893,0.05921483,-0.00234534,-0.11015032,-0.05649831,0.99230499,0.22065672,-0.11463471,3.13360691
16052836,16.04230880,0.22143032,0.04889586,0.31122817,-0.21752998,-0.11301960,0.96948795,0.00610420,-0.02101360,0.04174250,-0.00225141,-0.10947480,-0.05719438,0.99234008,0.21928315,-0.11605278,3.13334059
16085760,16.07523155,0.23408727,-0.00599541,0.24154825,-0.21941385,-0.11321178,0.96904096,-0.05109395,-0.00617299,-0.01738078,-0.00231022,-0.11043291,-0.05730644,0.99222736,0.22121367,-0.11630146,3.13331842
16118744,16.10821533,0.19358499,-0.12110720,0.31962175,-0.22130327,-0.11318597,0.96861438,-0.10193892,0.00014886,-0.03453231,-0.00238949,-0.11139250,-0.05731078,0.99211969,0.22315070,-0.11632595,3.13336181
16151716,16.14118766,0.13842725,-0.11377948,0.37451303,-0.22318711,-0.11284968,0.96822109,-0.10640273,0.02325007,-0.06734222,-0.00249168,-0.11234763,-0.05716090,0.99202032,0.22508289,-0.11603010,3.13348793
16184752,16.17422485,0.07287749,-0.18439203,0.48869218,-0.22501485,-0.11225401,0.96786718,-0.04476054,0.02241026,-0.05795509,-0.00261830,-0.11327252,-0.05688258,0.99193077,0.22695829,-0.11546491,3.13369798
16217748,16.20722007,0.01598775,-0.14881927,0.39489736,-0.22396197,-0.11063383,0.96829805,0.02620807,0.03299711,-0.02322972,-0.00271488,-0.11272617,-0.05606932,0.99203910,0.22587783,-0.11376266,3.13414907
16250664,16.24013519,0.06688208,-0.01598775,0.30803062,-0.22346847,-0.10872967,0.96862745,0.00618331,0.04012614,0.02941942,-0.00283362,-0.11246408,-0.05511774,0.99212179,0.22537155,-0.11178333,3.13464188
16283592,16.27306365,0.05928790,-0.14202450,0.33307809,-0.22409696,-0.10681595,0.96869544,-0.01735813,0.05139603,0.00078696,-0.00298669,-0.11277326,-0.05417066,0.99213848,0.22601633,-0.10982415,3.13513684
16316528,16.30599975,0.05688974,-0.05715620,0.31828942,-0.22484512,-0.10494109,0.96872701,-0.01465684,0.05269499,-0.02365863,-0.00313886,-0.11314407,-0.05324387,0.99214591,0.22678408,-0.10790807,3.13561964
16349512,16.33898353,0.05076110,-0.05688974,0.25447165,-0.22437748,-0.10302720,0.96904067,0.02052008,0.04516586,-0.03959727,-0.00325610,-0.11289632,-0.05228776,0.99222459,0.22630424,-0.10592086,3.13610816
16382488,16.37195968,-0.05529096,-0.09286218,0.13962633,-0.22263352,-0.10229148,0.96952085,0.05783860,0.02514305,-0.04422790,-0.00326639,-0.11200454,-0.05190892,0.99234561,0.22451498,-0.10511835,3.13631486
16415480,16.40495109,-0.07034610,0.05009494,-0.04303369,-0.22078590,-0.10194554,0.96997976,0.04280740,0.00721897,0.02953196,-0.00323573,-0.11106287,-0.05172205,0.99246129,0.22262020,-0.10471622,3.13639831
16448436,16.43790817,-0.05742266,0.08033844,-0.03916999,-0.22116234,-0.09999751,0.97009639,-0.01638648,-0.00522710,0.07043099,-0.00335102,-0.11124655,-0.05075269,0.99249019,0.22300627,-0.10271720,3.13683438
16481388,16.47085952,-0.01225727,0.03690505,-0.12097396,-0.21948542,-0.09914885,0.97056446,0.03027643,0.01614104,0.06849808,-0.00334615,-0.11039034,-0.05031573,0.99260816,0.22128705,-0.10180271,3.13701510
16514384,16.50385665,0.08286983,0.14202450,-0.29510722,-0.21777391,-0.09839171,0.97102689,0.03906297,0.01684874,0.06046724,-0.00331810,-0.10951808,-0.04992245,0.99272470,0.21953310,-0.10098282,3.13713884
16547328,16.53680038,0.10978255,0.16560642,-0.28991117,-0.21968088,-0.09798869,0.97063808,-0.04008475,0.00790080,-0.00457364,-0.00335929,-0.11048804,-0.04973220,0.99262666,0.22148737,-0.10061199,3.13716387
16580296,16.56976890,0.06208576,0.10751762,-0.30256817,-0.21787633,-0.09867091,0.97097558,0.02622594,0.00028224,-0.05178613,-0.00324977,-0.10957407,-0.05005635,0.99271202,0.21963803,-0.10127272,3.13696384
16613232,16.60270309,-0.02278254,-0.02371516,-0.35879170,-0.21945693,-0.09970891,0.97051391,-0.00442001,-0.00283015,-0.00176388,-0.00320209,-0.11038379,-0.05058243,0.99259595,0.22125778,-0.10237908,3.13666224
16646260,16.63573265,0.03277488,-0.08819909,-0.34533536,-0.22134215,-0.09960125,0.97009658,-0.05941956,0.00243328,-0.00256729,-0.00322616,-0.11134414,-0.05053935,0.99249076,0.22319054,-0.10231298,3.13661861
16679296,16.66876792,-0.01958499,-0.05862174,-0.25140736,-0.22323026,-0.09963125,0.96966066,-0.11075410,0.00148671,-0.05120367,-0.00325141,-0.11230640,-0.05056604,0.99238090,0.22512712,-0.10238925,3.13656115
16712336,16.70180892,-0.03210873,-0.01865237,-0.20224502,-0.22512154,-0.09940658,0.96924629,-0.10080618,0.01078353,-0.00708812,-0.00329487,-0.11326935,-0.05046628,0.99227628,0.22706780,-0.10220334,3.13656997
16745356,16.73482894,-0.00532925,-0.18439203,-0.11457886,-0.22690980,-0.09875845,0.96889553,-0.04994566,0.01819205,-0.01137602,-0.00336823,-0.11417796,-0.05015563,0.99218769,0.22890357,-0.10157809,3.13669538
16778400,16.76787185,-0.01532159,-0.13363093,-0.15614700,-0.22877202,-0.09890543,0.96844234,-0.06224361,-0.00509848,-0.00823730,-0.00339414,-0.11512806,-0.05024172,0.99207334,0.23081607,-0.10177550,3.13662695
16811508,16.80097961,-0.00732772,-0.07674119,-0.05609035,-0.23041148,-0.09980278,0.96796150,-0.04912954,-0.02470895,0.06255603,-0.00337893,-0.11596770,-0.05070126,0.99195222,0.23250052,-0.10274308,3.13639688
16844512,16.83398437,0.07114548,-0.13722817,0.01718683,-0.22849051,-0.09990003,0.96840677,0.01828544,-0.00483631,0.03818500,-0.00332647,-0.11498897,-0.05073512,0.99206466,0.23052692,-0.10279552,3.13638710
16877436,16.86690711,0.09192955,-0.09685912,-0.07940582,-0.22657518,-0.09988421,0.96885852,0.03394823,-0.00094587,0.01820207,-0.00327199,-0.11401340,-0.05071178,0.99217872,0.22855997,-0.10273180,3.13638639
16910416,16.89988708,0.08660031,-0.07993874,-0.05129403,-0.22730252,-0.10165795,0.96850337,-0.00511935,-0.00674050,0.01098877,-0.00318344,-0.11439189,-0.05160132,0.99208946,0.22930684,-0.10458101,3.13595604
16943444,16.93291664,0.05302603,-0.08939817,-0.04929555,-0.22552304,-0.10099704,0.96898841,0.02337462,0.00871187,0.00366783,-0.00317160,-0.11348280,-0.05125765,0.99221172,0.22747993,-0.10385435,3.13611149
16976444,16.96591567,0.06808116,0.04063552,-0.09272895,-0.22611045,-0.09907778,0.96904964,-0.01387978,0.01411684,0.03680974,-0.00328628,-0.11377432,-0.05030381,0.99222669,0.22808291,-0.10188819,3.13653659
17009392,16.99886322,0.10924961,-0.04316692,-0.04516539,-0.22784967,-0.09820093,0.96873140,-0.01555854,-0.00165259,0.04176664,-0.00337380,-0.11465704,-0.04987903,0.99214630,0.22986874,-0.10102554,3.13672113
17042368,17.03183937,0.14482234,-0.11591118,-0.01998469,-0.22965607,-0.09863403,0.96826066,-0.04597868,-0.01244996,0.01123148,-0.00338975,-0.11557965,-0.05010828,0.99202756,0.23172440,-0.10151704,3.13660168
17075376,17.06484794,0.14508881,0.01199081,0.04383307,-0.23151965,-0.09890612,0.96778888,-0.00480849,-0.00045911,-0.00685143,-0.00342058,-0.11653081,-0.05025833,0.99190855,0.23363952,-0.10184444,3.13652753
17108348,17.09782028,0.10471976,-0.04449923,-0.00572894,-0.22978236,-0.09815801,0.96827964,0.02201870,0.00929082,0.00266767,-0.00341919,-0.11564207,-0.04987177,0.99203233,0.23185403,-0.10102851,3.13671135
17141332,17.13080406,0.13736140,-0.09286218,0.01199081,-0.22802696,-0.09742293,0.96876831,0.00878868,0.00342879,0.03855592,-0.00341783,-0.11474444,-0.04949188,0.99215545,0.23005082,-0.10022673,3.13689303
17174268,17.16374015,0.12363860,-0.00066616,0.00053292,-0.22644407,-0.09637935,0.96924390,0.02307494,0.01361567,-0.01953685,-0.00343692,-0.11393389,-0.04895946,0.99227514,0.22842540,-0.09911185,3.13714146
17207212,17.19668388,0.04716386,0.00039969,-0.03064318,-0.22479217,-0.09546598,0.96971874,0.04022185,0.02149137,-0.01000196,-0.00344586,-0.11308906,-0.04849146,0.99239482,0.22672975,-0.09813087,3.13735580
17240144,17.22961616,0.04330015,-0.01132465,-0.04676416,-0.22307558,-0.09467617,0.97019262,0.03020448,0.01386562,0.01491481,-0.00344498,-0.11221214,-0.04808461,0.99251422,0.22496843,-0.09727692,3.13753747
17273120,17.26259231,0.04889586,0.01732006,-0.07794027,-0.22145991,-0.09369597,0.97065773,0.02932124,0.01776823,0.01103169,-0.00345426,-0.11138637,-0.04758337,0.99263134,0.22331130,-0.09623020,3.13775467
17306072,17.29554367,0.03224196,0.00559571,-0.10285452,-0.21988699,-0.09264225,0.97111625,0.02677177,0.01915591,0.03132510,-0.00346709,-0.11058248,-0.04704576,0.99274673,0.22169866,-0.09510985,3.13798332
17339060,17.32853126,0.06834763,-0.00852680,-0.08127105,-0.22043013,-0.09071148,0.97117538,-0.00955033,0.01576031,0.02052385,-0.00357869,-0.11085258,-0.04608605,0.99276123,0.22225546,-0.09313360,3.13840222
17371980,17.36145210,0.07647473,0.01025880,-0.04036906,-0.21939458,-0.08907866,0.97156105,-0.00082026,0.00045561,0.00695455,-0.00364106,-0.11032038,-0.04526428,0.99285812,0.22119390,-0.09143049,3.13876676
17404892,17.39436340,0.04130168,0.05635682,-0.06768147,-0.21774513,-0.08816083,0.97201585,0.02267678,0.01247724,0.00601149,-0.00364826,-0.10947849,-0.04479461,0.99297256,0.21950359,-0.09045148,3.13896679
17437800,17.42727279,0.04156814,0.01079173,-0.06834763,-0.21635870,-0.08684850,0.97244319,0.00151497,0.00359654,0.01974434,-0.00368311,-0.10876951,-0.04413023,0.99308004,0.21808333,-0.08907326,3.13925242
17470748,17.46022033,0.07674119,0.02704594,-0.04996171,-0.21825604,-0.08701125,0.97200460,-0.03174394,-0.00527391,0.02848369,-0.00370962,-0.10973547,-0.04422361,0.99296951,0.22002711,-0.08927935,3.13919615
17503732,17.49320411,0.07034610,0.07580858,0.00826034,-0.21996722,-0.08783393,0.97154483,-0.01587263,-0.00762505,0.00575012,-0.00370023,-0.11060885,-0.04464529,0.99285373,0.22178087,-0.09016137,3.13900041
17536712,17.52618408,0.02864472,0.07101225,-0.01358959,-0.22148303,-0.08655105,0.97131538,-0.00166148,0.00378738,-0.00891304,-0.00380231,-0.11137657,-0.04401612,0.99279556,0.22333509,-0.08887232,3.13928031
17569652,17.55912399,0.07754058,-0.02931087,0.02637979,-0.22336561,-0.08672709,0.97086849,-0.05031602,-0.00775533,0.03059638,-0.00383401,-0.11233564,-0.04411705,0.99268293,0.22526602,-0.08909291,3.13923311
17602600,17.59207153,0.08939817,0.05222664,0.04556508,-0.22147159,-0.08683517,0.97129287,0.00125675,-0.00105546,0.00990826,-0.00378861,-0.11137149,-0.04415791,0.99279003,0.22332332,-0.08916460,3.13922047
17635532,17.62500381,0.06488361,0.02797856,0.02624655,-0.22021753,-0.08538394,0.97170648,0.00488551,0.00970034,0.02756113,-0.00384328,-0.11072872,-0.04342612,0.99289398,0.22203752,-0.08764498,3.13955760
17668488,17.65796089,0.09566003,-0.00866003,0.04636447,-0.21968543,-0.08348014,0.97199201,0.00679481,0.02049186,-0.00202131,-0.00393993,-0.11045236,-0.04247403,0.99296541,0.22149209,-0.08567537,3.13999533
17701484,17.69095611,0.04689740,0.04130168,0.01838591,-0.21798090,-0.08266218,0.97244586,0.05538327,0.02553327,-0.01761192,-0.00395015,-0.10958268,-0.04205498,0.99307975,0.21974518,-0.08480052,3.14018750
17734432,17.72390365,0.02931087,0.02131700,-0.08939817,-0.21669352,-0.08124508,0.97285308,0.01893962,0.02143063,0.01030117,-0.00399328,-0.10892431,-0.04133935,0.99318208,0.21842622,-0.08331884,3.14049291
17767360,17.75683212,0.03930321,0.00866003,-0.05715620,-0.21497926,-0.08042961,0.97330112,0.02796756,0.01353507,0.02254850,-0.00399749,-0.10805056,-0.04092112,0.99329481,0.21667060,-0.08244856,3.14066934
17800292,17.78976440,0.02957734,0.01918530,-0.09952374,-0.21353759,-0.07917824,0.97372064,0.01090088,0.01179542,0.02627933,-0.00402732,-0.10731481,-0.04028719,0.99340019,0.21519470,-0.08113662,3.14093208
17833252,17.82272338,0.06501685,0.00266462,-0.07034610,-0.21533732,-0.07977160,0.97327585,-0.01879354,-0.00641005,0.01109916,-0.00402385,-0.10823174,-0.04059376,0.99328823,0.21703727,-0.08177917,3.14078021
17866276,17.85574722,0.04529862,0.01985145,-0.05715620,-0.21343059,-0.07976394,0.97369651,0.01909466,-0.00007005,0.00530738,-0.00398053,-0.10726232,-0.04057696,0.99339437,0.21508512,-0.08173617,3.14077758
17899264,17.88873672,0.04476570,-0.02065084,-0.09632619,-0.21533329,-0.07957654,0.97329301,-0.03198115,0.00169569,0.00717574,-0.00401955,-0.10822981,-0.04049492,0.99329271,0.21703310,-0.08157867,3.14079356
17932248,17.92172050,0.06554977,-0.01199081,-0.00586217,-0.21723895,-0.07957549,0.97286949,-0.04301496,-0.00025850,-0.00924647,-0.00405569,-0.10919928,-0.04050663,0.99318590,0.21898498,-0.08161293,3.14078283
17965304,17.95477676,0.01625421,0.04369984,-0.02451455,-0.21585981,-0.07825720,0.97328319,0.01712935,0.01478063,-0.00697464,-0.00409802,-0.10849466,-0.03984055,0.99328985,0.21757233,-0.08023277,3.14107656
17998356,17.98782730,0.03583920,-0.01345635,-0.04489892,-0.21593556,-0.07626428,0.97342443,-0.00818554,0.00912560,0.03560877,-0.00420345,-0.10852892,-0.03884764,0.99332494,0.21764993,-0.07818665,3.14150929
18031356,18.02082824,0.06328484,-0.03477335,-0.00479632,-0.21771872,-0.07549959,0.97308692,-0.02788675,0.01226716,-0.00848734,-0.00427760,-0.10943459,-0.03847803,0.99323968,0.21947653,-0.07743260,3.14167022
18064348,18.05381965,0.02797856,0.02211639,-0.00106585,-0.21619346,-0.07435686,0.97351474,0.00769737,0.00526506,-0.00329995,-0.00431079,-0.10865622,-0.03789895,0.99334726,0.21791405,-0.07623178,3.14192891
18097356,18.08682823,0.00746095,0.01811945,0.00932619,-0.21444072,-0.07363199,0.97395744,0.02279033,0.00942299,0.00846446,-0.00431857,-0.10776323,-0.03752685,0.99345855,0.21611924,-0.07545728,3.14209699
18130384,18.11985588,0.02771210,0.07580858,-0.03837059,-0.21307220,-0.07229867,0.97435770,0.00140229,0.00369516,0.01880640,-0.00436137,-0.10706497,-0.03685365,0.99355907,0.21471836,-0.07406563,3.14238595
18163380,18.15285110,0.03117611,0.03557274,-0.01652067,-0.21365730,-0.07037978,0.97437009,-0.00289543,0.00592665,0.00463378,-0.00447267,-0.10735927,-0.03590121,0.99356184,0.21531720,-0.07210583,3.14279961
18196364,18.18583679,0.01079173,0.04849617,0.00866003,-0.21557161,-0.07045310,0.97394313,-0.01367642,-0.00059182,-0.00226343,-0.00450235,-0.10833308,-0.03594962,0.99345417,0.21727719,-0.07221222,3.14277720
18229344,18.21881675,0.00599541,0.00213170,-0.00146554,-0.21432695,-0.07200062,0.97410440,0.00119218,0.00095569,-0.00706339,-0.00439628,-0.10770266,-0.03671261,0.99349517,0.21600275,-0.07378052,3.14243960
18262328,18.25180053,0.01159112,0.01372282,-0.04076876,-0.21241793,-0.07201900,0.97452135,0.00929293,-0.00097905,0.01424819,-0.00435745,-0.10673205,-0.03670951,0.99360036,0.21404869,-0.07376783,3.14243483
18295336,18.28480720,-0.01358959,0.01199081,-0.00905972,-0.21054012,-0.07171225,0.97495136,-0.00479190,-0.00152995,0.01943344,-0.00433966,-0.10577696,-0.03654508,0.99370861,0.21212744,-0.07342248,3.14250659
18328360,18.31783294,0.01438897,0.02691271,-0.00466309,-0.21240994,-0.07121005,0.97458257,-0.02660373,0.00504794,0.01125729,-0.00439875,-0.10672667,-0.03630628,0.99361553,0.21404054,-0.07293763,3.14260745
18361340,18.35081291,0.01918530,0.01838591,-0.02637979,-0.21428453,-0.07074553,0.97420587,-0.00519788,0.00116545,-0.00008482,-0.00445410,-0.10767924,-0.03608620,0.99352054,0.21595931,-0.07249143,3.14269733
18394348,18.38381958,0.01079173,0.01199081,0.00626187,-0.21612999,-0.07120516,0.97376461,-0.01604773,-0.00399016,-0.00574702,-0.00446196,-0.10861878,-0.03632664,0.99340944,0.21784906,-0.07299368,3.14258980
18427392,18.41686439,-0.00679479,0.06088667,0.01518836,-0.21804590,-0.07125795,0.97333345,-0.02218847,-0.00027525,-0.01019871,-0.00449393,-0.10959372,-0.03636509,0.99330081,0.21981177,-0.07307984,3.14257311
18460420,18.44989204,-0.00746095,0.02304901,0.02171669,-0.21912157,-0.07286859,0.97297248,-0.01256788,-0.01111578,0.02751577,-0.00442621,-0.11014411,-0.03717422,0.99321022,0.22091410,-0.07475319,3.14221096
18493368,18.48283958,0.03490658,0.01145789,0.02637979,-0.21990134,-0.07465109,0.97266149,-0.01203225,-0.01641336,0.02294397,-0.00434346,-0.11054451,-0.03806712,0.99313240,0.22171332,-0.07659914,3.14180898
18526352,18.51582336,0.00093262,0.05955436,0.05875497,-0.21800696,-0.07479448,0.97307662,0.00755775,0.00008745,-0.00579149,-0.00430484,-0.10958045,-0.03812682,0.99323692,0.21977190,-0.07671308,3.14179301
18559328,18.54879951,-0.03916999,0.02704594,0.09739203,-0.21982822,-0.07534403,0.97262458,-0.02919521,-0.00888449,0.00344962,-0.00431728,-0.11050822,-0.03841327,0.99312314,0.22163839,-0.07731025,3.14168000
18592356,18.58182716,0.01678714,0.01052527,0.07527565,-0.21794965,-0.07507901,0.97306776,0.00847699,0.00086025,0.00886583,-0.00430275,-0.10955129,-0.03826978,0.99323472,0.21971316,-0.07700444,3.14175891
18625304,18.61477661,0.01771975,0.03330781,0.02065084,-0.21653213,-0.07379894,0.97348155,0.00095597,0.00324229,0.02090317,-0.00434771,-0.10882744,-0.03762324,0.99333868,0.21826102,-0.07566452,3.14205217
18658264,18.64773559,0.04156814,-0.00506279,0.02304901,-0.21471228,-0.07324719,0.97392673,-0.00086388,-0.00048328,0.02436429,-0.00434570,-0.10790055,-0.03733702,0.99345073,0.21639726,-0.07506680,3.14218354
18691240,18.68071174,0.03996937,-0.01012557,0.03024349,-0.21280860,-0.07349154,0.97432575,0.00528908,0.00073763,-0.01338828,-0.00429976,-0.10693286,-0.03744704,0.99355134,0.21444857,-0.07528553,3.14214062
18724268,18.71373939,0.02571363,0.03823736,0.01025880,-0.21472182,-0.07356245,0.97390108,-0.01818833,-0.00065631,-0.00515109,-0.00433114,-0.10790591,-0.03749437,0.99344444,0.21640698,-0.07539064,3.14211869
18757328,18.74679946,0.03197550,-0.00079939,0.01012557,-0.21284234,-0.07397787,0.97428207,0.02192438,-0.00658854,0.01839376,-0.00427454,-0.10695092,-0.03768955,0.99354057,0.21448304,-0.07578522,3.14203476
18790272,18.77974319,0.01039204,-0.01598775,-0.02211639,-0.21451394,-0.07487976,0.97384624,-0.00936301,-0.00544251,-0.01242048,-0.00425480,-0.10780282,-0.03814916,0.99343090,0.21619417,-0.07673974,3.14182662
18823324,18.81279563,-0.00333078,0.01971822,-0.02371516,-0.21408853,-0.07683305,0.97378759,-0.00246419,-0.00153609,0.01180810,-0.00413929,-0.10759066,-0.03911941,0.99341659,0.21575870,-0.07873812,3.14139437
18856352,18.84582328,0.00905972,0.02078407,-0.00959265,-0.21599924,-0.07687716,0.97336215,-0.03668630,-0.00295682,0.02151084,-0.00417229,-0.10856261,-0.03915349,0.99330940,0.21771512,-0.07881742,3.14137506
18889324,18.87879562,0.03903675,0.00652833,0.01878561,-0.21633980,-0.07881363,0.97313156,-0.00363089,-0.00736801,0.01051104,-0.00407415,-0.10874025,-0.04012058,0.99325170,0.21806399,-0.08081330,3.14094519
18922292,18.91176414,0.03184226,0.00719449,0.01638744,-0.21824748,-0.07883392,0.97270412,-0.01612751,-0.00051179,0.00019622,-0.00411117,-0.10971088,-0.04014321,0.99314413,0.22001829,-0.08086939,3.14093446
18955268,18.94474029,0.01252374,0.00599541,0.02931087,-0.21998677,-0.07958482,0.97225074,-0.00926126,-0.00391128,0.00480002,-0.00410617,-0.11059786,-0.04052904,0.99302988,0.22180101,-0.08167417,3.14076256
18988232,18.97770309,0.01638744,0.01478867,0.02837825,-0.22132256,-0.08095134,0.97183475,-0.00548407,-0.00449788,0.00643677,-0.00405880,-0.11128126,-0.04121895,0.99292535,0.22317049,-0.08310558,3.14045071
19021240,19.01071166,0.01252374,0.00479632,0.01465544,-0.21968054,-0.08000350,0.97228603,0.00630164,0.00407577,0.01184487,-0.00407957,-0.11044288,-0.04073588,0.99303894,0.22148699,-0.08209897,3.14067459
19054212,19.04368400,0.02318224,-0.00919296,0.00892649,-0.21798214,-0.07915446,0.97273712,0.00484738,0.00298258,0.02140355,-0.00409307,-0.10957647,-0.04030170,0.99315233,0.21974651,-0.08119402,3.14087319
19087156,19.07662773,0.03370750,0.02078407,0.02011792,-0.21807119,-0.07715975,0.97287778,-0.00263193,0.00538240,0.01100892,-0.00420555,-0.10961706,-0.03930867,0.99318733,0.21983766,-0.07914518,3.14132213
19120100,19.10957145,0.03237519,-0.01332312,-0.00466309,-0.21620216,-0.07763270,0.97325716,0.00721780,-0.00171301,0.00037569,-0.00414272,-0.10866723,-0.03953206,0.99328308,0.21792297,-0.07959734,3.14122200
19153120,19.14259147,0.01052527,0.00306432,-0.01079173,-0.21453197,-0.07865284,0.97354497,0.01213939,-0.00655224,-0.00210941,-0.00405373,-0.10782009,-0.04002945,0.99335594,0.21621265,-0.08061506,3.14100050
19186132,19.17560386,-0.01172435,0.03424043,0.01478867,-0.21624932,-0.07947564,0.97309799,-0.01519598,-0.00719429,0.00029069,-0.00404417,-0.10869548,-0.04045071,0.99324340,0.21797130,-0.08149193,3.14081430
19219124,19.20859527,-0.00359724,-0.00106585,0.00226493,-0.21760673,-0.08082347,0.97268466,-0.00968820,-0.00609059,0.02414155,-0.00399773,-0.10938937,-0.04113121,0.99313964,0.21936173,-0.08290276,3.14050865
19252120,19.24159240,0.02877795,0.00572894,0.01798622,-0.21932063,-0.08162837,0.97223205,-0.00870670,-0.00382085,0.01189882,-0.00398906,-0.11026360,-0.04154377,0.99302568,0.22111811,-0.08376331,3.14032268
19285060,19.27453231,-0.01545482,0.04063552,0.04503216,-0.22115409,-0.08213010,0.97177410,-0.02396309,-0.00649295,-0.00986004,-0.00400223,-0.11119809,-0.04180648,0.99291028,0.22299776,-0.08431526,3.14020848
19318088,19.30755996,-0.04849617,0.02051761,0.09579326,-0.22135534,-0.08410206,0.97155990,-0.00008021,-0.00305615,-0.00134510,-0.00390525,-0.11130564,-0.04279137,0.99285688,0.22320406,-0.08634870,3.13977646
