time_watch,seconds_elapsed_watch,rotationRateX_watch,rotationRateY_watch,rotationRateZ_watch,gravityX_watch,gravityY_watch,gravityZ_watch,accelerationX_watch,accelerationY_watch,accelerationZ_watch,quaternionW_watch,quaternionX_watch,quaternionY_watch,quaternionZ_watch,pitch_watch,roll_watch,yaw_watch,t_rel_watch,time_imu,seconds_elapsed_imu,rotationRateX_imu,rotationRateY_imu,rotationRateZ_imu,gravityX_imu,gravityY_imu,gravityZ_imu,accelerationX_imu,accelerationY_imu,accelerationZ_imu,quaternionW_imu,quaternionX_imu,quaternionY_imu,quaternionZ_imu,pitch_imu,roll_imu,yaw_imu,t_rel_imu,seconds_shifted,t_rel_shifted
1763354779295836416,4.66283655166626,-0.1424027681350708,0.0776668339967727,-0.0034767440520226,0.0502310805022716,-0.2191977947950363,-0.9743865728378296,-0.0083762221038341,0.0441184490919113,0.0063689947128295,0.401073991422395,0.0214005948612272,0.1111248613476998,0.9090285772174984,0.2209921920634086,0.0515058954835334,2.3048338719528605,0.0,,,,,,,,,,,,,,,,,,,,,
1763354779305883392,4.6728835105896,-0.1610539406538009,0.0981633216142654,-0.0220887772738933,0.0511316955089569,-0.2177306115627288,-0.9746686220169068,-0.0120844468474388,0.0323668420314788,0.0135632753372192,0.4011103781280057,0.0206873624180749,0.110624224824579,0.9090901350503408,0.2194886961927261,0.0524125474082906,2.3047561713896925,0.010046958923339844,,,,,,,,,,,,,,,,,,,,,
1763354779315929344,4.682929515838623,-0.2038515210151672,0.1158962771296501,-0.0282858647406101,0.0522494576871395,-0.215928167104721,-0.9750102758407592,-0.0162387117743492,0.0107127130031585,0.0108989477157592,0.4011858986826444,0.0198098677656036,0.1100110609523514,0.909150774472494,0.2176423168789401,0.0535374153223924,2.3045923973733276,0.02009296417236328,,,,,,,,,,,,,,,,,,,,,
1763354779325975296,4.6929755210876465,-0.2233383953571319,0.1092436984181404,-0.0376351587474346,0.0534352026879787,-0.2137970924377441,-0.9754155278205872,-0.0125416480004787,-0.0080199092626571,0.0165990591049194,0.4013030567159834,0.0188383593302367,0.1092581584824756,0.909210406671734,0.2154602834780228,0.0547272837064067,2.3043553384150366,0.03013896942138672,,,,,,,,,,,,,,,,,,,,,
1763354779336022272,4.703022480010986,-0.2270792722702026,0.0813342332839965,-0.0364631004631519,0.0545024499297142,-0.2115483433008194,-0.9758467078208924,-0.0048045739531517,-0.0142969936132431,0.0057691931724548,0.4014445210843785,0.0179000070216138,0.1084261945513542,0.9092665339186776,0.2131588828238574,0.0557934799326209,2.3040901296138507,0.04018592834472656,,,,,,,,,,,,,,,,,,,,,
1763354779346068480,4.71306848526001,-0.1944779157638549,0.0357584990561008,-0.0303977504372596,0.055152278393507,-0.2094298154115677,-0.9762670397758484,0.0097586102783679,-0.0032624304294586,-0.0043847560882568,0.4015866214374531,0.0171804593988832,0.1075699751750464,0.9093193695317549,0.2109918011067487,0.0564330384106878,2.303864910753767,0.05023193359375,,,,,,,,,,,,,,,,,,,,,
1763354779356114432,4.723114490509033,-0.1568926274776458,0.0030228220857679,-0.0156291928142309,0.0550729036331176,-0.206334039568901,-0.9769304990768432,0.0221213102340698,0.0208634734153747,-0.0115643143653869,0.4017357527654032,0.0165946547062553,0.1061101176450282,0.9094359402278814,0.207826890894488,0.0563138064898731,2.3037880415948946,0.06027793884277344,,,,,,,,,,,,,,,,,,,,,
1763354779366161408,4.733161449432373,-0.1168661117553711,-0.0345043130218982,-0.0106440205127,0.054661326110363,-0.2039907276630401,-0.9774456024169922,0.0245165415108203,0.0416982471942901,-0.0106830596923828,0.4018399026621208,0.0163116514934898,0.1049338942085098,0.909531562882648,0.2054326407253906,0.055864441145545,2.3037887113520887,0.07032489776611328,,,,,,,,,,,,,,,,,,,,,
1763354779376207360,4.7432074546813965,-0.044728972017765,-0.0677446573972702,-0.0160293765366077,0.0538247488439083,-0.2024716436862945,-0.9778078198432922,0.0218893662095069,0.0489682257175445,-0.0109311938285827,0.4019367838676341,0.0163931185838625,0.1040545786344036,0.9095882514477038,0.2038811794674882,0.0549908498585853,2.3037897118173594,0.08037090301513672,,,,,,,,,,,,,,,,,,,,,
1763354779386253312,4.75325345993042,-0.0071858563460409,-0.1081362888216972,-0.0277723185718059,0.0526442937552928,-0.2018291503190994,-0.9780048727989196,0.0198196955025196,0.0475475341081619,-0.0176768898963928,0.4020913707034997,0.0168199171156258,0.1035115654423533,0.9095740412754392,0.2032251490315436,0.0537763541237205,2.303635881969813,0.09041690826416016,,,,,,,,,,,,,,,,,,,,,
1763354779396300288,4.76330041885376,0.0300938058644533,-0.1429658383131027,-0.0169305019080638,0.0510107018053531,-0.202099472284317,-0.9780356287956238,0.0228723585605621,0.0492826998233795,-0.0121682286262512,0.4022339490107688,0.0176417624996686,0.1033002796783954,0.909519538553864,0.2035011609980126,0.0521090666558559,2.303492287471541,0.1004638671875,,,,,,,,,,,,,,,,,,,,,
1763354779406346240,4.773346424102783,0.0562566965818405,-0.1771416515111923,-0.0041153701022267,0.0492154024541378,-0.2032002359628677,-0.9778995513916016,0.0260104313492774,0.0427998453378677,-0.0091457366943359,0.4023363603732063,0.0187049635661448,0.103442512557413,0.9094368217888696,0.2046252409360923,0.0502852405331426,2.3033944039223972,0.11050987243652344,,,,,,,,,,,,,,,,,,,,,
1763354779416392448,4.783392429351807,0.0641008093953132,-0.1889064759016037,0.0103915799409151,0.0474697165191173,-0.2044828385114669,-0.977718472480774,0.0210117362439632,0.0303190201520919,-0.010440707206726,0.4023991755140304,0.0197786989338672,0.1036801330188341,0.9093592303325,0.2059353508155006,0.0485134220017204,2.3033656077890536,0.12055587768554688,,,,,,,,,,,,,,,,,,,,,
1763354779426440192,4.793440341949463,0.0377187319099903,-0.1791028380393982,0.0117290187627077,0.0460922233760356,-0.2052197605371475,-0.9776299595832824,0.0107772797346115,0.0164685398340225,-0.002518355846405,0.4024498910316065,0.0205692892992505,0.1037396758240982,0.9093123897900632,0.2066882426730914,0.0471120142571677,2.303361079413287,0.13060379028320312,,,,,,,,,,,,,,,,,,,,,
1763354779436486144,4.803486347198486,-0.0128748342394828,-0.1575273424386978,0.0165962111204862,0.0451974309980869,-0.2048557102680206,-0.9777480959892272,-0.0037393011152744,0.0011508762836456,0.0089523196220397,0.4025162231711833,0.0209121780893857,0.1033858539526646,0.9093155356397132,0.2063162867827176,0.0461931639916388,2.303345720870548,0.14064979553222656,,,,,,,,,,,,,,,,,,,,,
1763354779446532352,4.81353235244751,-0.0618980377912521,-0.1446019560098648,0.01633096113801,0.0444827675819397,-0.2034422606229782,-0.978075921535492,-0.0133548416197299,-0.0112183690071105,0.0216856002807617,0.4025931784496837,0.0209562737724206,0.1025810326158291,0.909371593807474,0.2048724305542533,0.0454485532624697,2.3033601207611603,0.15069580078125,,,,,,,,,,,,,,,,,,,,,
1763354779456579328,4.82357931137085,-0.0785539746284484,-0.110521487891674,0.0173323974013328,0.0438368842005729,-0.2016492784023285,-0.9784762859344482,-0.0174239166080951,-0.0222429186105728,0.0230472683906555,0.4026481979620997,0.0208877613476492,0.1016146839849435,0.909457323642881,0.2030414961536971,0.0447712318994309,2.3034398569259684,0.16074275970458984,,,,,,,,,,,,,,,,,,,,,
1763354779466625280,4.833625316619873,-0.0688246563076973,-0.0781624838709831,0.0267211068421602,0.0434119291603565,-0.1999501436948776,-0.978843867778778,-0.0173346661031246,-0.0117197632789611,0.0080492496490478,0.4026527722171924,0.0207317450729524,0.1007385428815598,0.909556285728156,0.2013070319244806,0.0443211634633001,2.303596643854814,0.17078876495361328,,,,,,,,,,,,,,,,,,,,,
1763354779476671232,4.8436713218688965,-0.0801494494080543,-0.0700515881180763,0.0351263955235481,0.0432377122342586,-0.1982481479644775,-0.9791977405548096,-0.0120792724192142,0.01393723487854,0.0005295276641845,0.4026080538441594,0.0204548103029213,0.0999136758200657,0.909673283037496,0.1995702672342865,0.0441275986432527,2.3038322798711204,0.18083477020263672,,,,,,,,,,,,,,,,,,,,,
1763354779486718208,4.853718280792236,-0.0910596176981926,-0.0718164667487144,0.0295071266591548,0.0431746467947959,-0.1965761929750442,-0.979537546634674,-0.0059737116098403,0.0295534878969192,0.0067744851112365,0.4025560123814605,0.0201325152685998,0.0991257839000937,0.9097898336566872,0.1978647486672879,0.0440480509002083,2.304068880074143,0.19088172912597656,,,,,,,,,,,,,,,,,,,,,
1763354779496764160,4.86376428604126,-0.1018754467368125,-0.0531773343682289,0.0159469321370124,0.0431239940226078,-0.1950161904096603,-0.9798515439033508,-0.0068843699991703,0.0168545693159103,0.0118034482002258,0.4025485864618944,0.0198327308389001,0.0983915749144893,0.909879322163852,0.196273961666981,0.0439823624690249,2.3041970651103947,0.200927734375,,,,,,,,,,,,,,,,,,,,,
1763354779506810112,4.873810291290283,-0.1263813227415084,-0.0239214431494474,0.0116501888260245,0.0431090258061885,-0.1937288045883178,-0.9801075458526612,-0.0143919885158538,-0.0007749795913696,0.0092670917510986,0.4025390573381992,0.0195727708727291,0.0977913337622911,0.909953829127254,0.1949615430297715,0.0439556464722888,2.304306867806691,0.21097373962402344,,,,,,,,,,,,,,,,,,,,,
1763354779516857344,4.883857488632202,-0.159549593925476,0.0145553080365061,0.0076399114914238,0.0430219881236553,-0.1926833838224411,-0.9803174138069152,-0.0212019234895706,-0.0048721581697463,0.0114606022834777,0.4025098405243275,0.0193938097103942,0.097289136207554,0.9100244346064076,0.1938960411473036,0.0438576321489758,2.304451190920194,0.22102093696594238,,,,,,,,,,,,,,,,,,,,,
1763354779526903296,4.893903493881226,-0.2213602364063263,0.0321846343576908,-0.0091097736731171,0.0429589301347732,-0.1915253251791,-0.9805470705032348,-0.0211388617753982,-0.0069304853677749,0.0107747316360473,0.4024901433393208,0.0191817166315187,0.0967394458858039,0.9100962650258728,0.1927160019244573,0.0437831864626885,2.304579150205239,0.23106694221496582,,,,,,,,,,,,,,,,,,,,,
1763354779536949504,4.903949499130249,-0.2470860034227371,0.0257085263729095,-0.010311746969819,0.0428078770637512,-0.1903407275676727,-0.9807843565940856,-0.0125802159309387,-0.0077030807733535,0.0040082335472106,0.4024929778729227,0.0190070040892039,0.0961590884556248,0.9101602593480708,0.1915092132445655,0.0436188902046467,2.3046685247006247,0.24111294746398926,,,,,,,,,,,,,,,,,,,,,
1763354779546996480,4.913996458053589,-0.270454466342926,0.0320902578532695,-0.0184208061546087,0.0425874665379524,-0.1884961873292923,-0.9811500906944276,-0.0074464678764343,-0.0138048380613327,0.0167641043663024,0.4025275829089701,0.0187314749984167,0.09525799999741,0.910245426129369,0.1896306596450139,0.0433784301164121,2.3047383841112454,0.2511599063873291,,,,,,,,,,,,,,,,,,,,,
1763354779557042432,4.924042463302612,-0.2536320686340332,0.0488881468772888,-0.029606083407998,0.0426708869636058,-0.185764193534851,-0.9816673994064332,-0.0119854621589183,-0.0054742097854614,0.0223473310470581,0.4026348807049754,0.0181413531183431,0.0940063677266937,0.9103399554642612,0.1868495303662866,0.0434404201232224,2.3046729675947404,0.26120591163635254,,,,,,,,,,,,,,,,,,,,,
1763354779567088384,4.934088468551636,-0.21989406645298,0.0703106150031089,-0.0279285572469234,0.0431622602045536,-0.1829041987657547,-0.982182800769806,-0.0167035199701786,0.0121125727891922,0.0148060917854309,0.40276807367714,0.0173405190102644,0.092778777966616,0.910422574851033,0.1839396793672677,0.0439169840905285,2.3045151713208667,0.271251916885376,,,,,,,,,,,,,,,,,,,,,
1763354779577135360,4.944135427474976,-0.192598357796669,0.0969109013676643,-0.026660980656743,0.0438718311488628,-0.1808090955018997,-0.9825392365455629,-0.0171384252607822,0.0326462537050247,0.0051832795143127,0.4028664061017202,0.0165936784414101,0.0919512677632209,0.9104769645618432,0.1818090414397322,0.0446218396303367,2.3043616734742685,0.2812988758087158,,,,,,,,,,,,,,,,,,,,,
1763354779587181312,4.954181432723999,-0.1861332654953003,0.1033741310238838,-0.0233064629137516,0.0445665642619133,-0.1793349683284759,-0.9827780723571776,-0.0109819658100605,0.0407546609640121,-0.0064033865928649,0.4029228363248279,0.0159773341202866,0.0914093784381874,0.9105176361172233,0.1803104183288459,0.0453164878178189,2.304262038049714,0.29134488105773926,,,,,,,,,,,,,,,,,,,,,
1763354779597227264,4.9642274379730225,-0.220251128077507,0.0909649580717086,-0.0245665833353996,0.0451027899980545,-0.1777814328670501,-0.9830358624458312,-0.001294806599617,0.0245068967342376,-0.0093042254447937,0.4029812599527144,0.0154176126562851,0.0907985028300962,0.9105624885205388,0.1787315155786923,0.0458489707120489,2.304179430821865,0.3013908863067627,,,,,,,,,,,,,,,,,,,,,
1763354779607274240,4.974274396896362,-0.2848988175392151,0.0664263293147087,-0.0127056622877717,0.0453474409878253,-0.1758377104997635,-0.9833741188049316,0.0065629705786705,-0.004444882273674,-0.0013823509216308,0.403007533741258,0.0149082072743988,0.0899481608647762,0.9106438022684828,0.1767566725318348,0.0460814807216895,2.30422238702831,0.31143784523010254,,,,,,,,,,,,,,,,,,,,,
1763354779617320192,4.984320402145386,-0.3689526915550232,0.0661269873380661,-0.0008074576035141,0.045568972826004,-0.173261284828186,-0.9838210940361024,0.0047239996492862,-0.0266746282577514,0.0112716555595397,0.4029888104463548,0.014275122973456,0.0888012440860543,0.9107747442992618,0.1741400831725288,0.0462852704830597,2.304406091426338,0.321483850479126,,,,,,,,,,,,,,,,,,,,,
1763354779627366400,4.994366407394409,-0.4245070815086365,0.0735675916075706,0.0050456379540264,0.0459814630448818,-0.1702909916639328,-0.9843204021453856,-0.0026465058326721,-0.0369233638048172,0.0213229656219482,0.4029440772824245,0.0134715065717548,0.0875117743727374,0.910931493679416,0.1711249651133551,0.0466799828293047,2.3046519060523996,0.3315298557281494,,,,,,,,,,,,,,,,,,,,,
1763354779637413376,5.004413366317749,-0.4632815718650818,0.0860082507133483,0.0228448752313852,0.0463503524661064,-0.1666229665279388,-0.984930694103241,-0.0089358016848564,-0.0296966135501861,0.0235049128532409,0.4028386861769996,0.0125396101493948,0.0858919184243434,0.9111456252192486,0.1674037644831742,0.0470248152014584,2.305077937715254,0.34157681465148926,,,,,,,,,,,,,,,,,,,,,
1763354779647459328,5.0144593715667725,-0.4580508470535278,0.064549297094345,0.0313739143311977,0.0464625097811222,-0.162274494767189,-0.985651195049286,-0.0067896582186222,-0.0125454515218734,0.0193273425102233,0.4026857387546126,0.0115826915210114,0.0839062412486364,0.911410898846706,0.1629952650433201,0.0471040301300869,2.3056719555949785,0.3516228199005127,,,,,,,,,,,,,,,,,,,,,
1763354779657505280,5.024505376815796,-0.4208196997642517,0.0754851028323173,0.0597236156463623,0.0470671355724334,-0.1579058915376663,-0.986331820487976,-0.0020384564995765,0.0055316239595413,0.0075873136520385,0.4024846695526886,0.0103931466738203,0.0820127078469869,0.911686299172216,0.158569574084708,0.0476832026959678,2.306323209171608,0.36166882514953613,,,,,,,,,,,,,,,,,,,,,
1763354779667552256,5.034552335739136,-0.4141671061515808,0.0980860218405723,0.1093630790710449,0.0477780699729919,-0.1537955552339553,-0.9869468808174132,-0.0010709166526794,0.025209754705429,-0.0104743838310241,0.4020825829481197,0.0091916746487595,0.0802624658383786,0.9120323901673092,0.1544083969634087,0.0483722057834099,2.307388354539368,0.371715784072876,,,,,,,,,,,,,,,,,,,,,
1763354779677598208,5.044598340988159,-0.4420483708381653,0.1310126483440399,0.1363597959280014,0.0487432330846786,-0.149624690413475,-0.9875406622886658,-0.0067205317318439,0.02898870408535,-0.0029836297035217,0.4014988703705721,0.0078480295830413,0.0785371271597918,0.9124521472317187,0.1501886795081727,0.0493181794196477,2.308831023936657,0.3817617893218994,,,,,,,,,,,,,,,,,,,,,
1763354779687644160,5.054644346237183,-0.5182299613952637,0.1551936268806457,0.1702205687761306,0.0499371215701103,-0.1449781656265258,-0.9881739020347596,-0.0148571655154228,0.0038038492202758,0.0059961676597595,0.4007571936267765,0.0062926441266664,0.0766385232049933,0.9129515810751468,0.1454909059971624,0.0504917981428913,2.31062722923599,0.39180779457092285,,,,,,,,,,,,,,,,,,,,,
1763354779697691136,5.0646913051605225,-0.6494936943054199,0.1679837107658386,0.1949439346790313,0.0512887872755527,-0.139282688498497,-0.9889235496520996,-0.0141641497611999,-0.0381617695093154,0.0209975242614746,0.3998669704014053,0.0044445263213254,0.0742864004289772,0.913547073779124,0.1397370030322587,0.0518168225858262,2.3127954127581134,0.4018547534942627,,,,,,,,,,,,,,,,,,,,,
1763354779707737088,5.074737310409546,-0.819611668586731,0.1779721677303314,0.1969183981418609,0.052753958851099,-0.1320913732051849,-0.9898327589035034,-0.011585745960474,-0.06685271859169,0.0303448438644409,0.3989238756029327,0.0022445673309506,0.0712641734505351,0.9142079397277496,0.132478541647083,0.0532454540484057,2.3151531827576397,0.41190075874328613,,,,,,,,,,,,,,,,,,,,,
1763354779717783296,5.084783315658569,-1.0272856950759888,0.1799050569534301,0.1885118782520294,0.0542885772883892,-0.1229843646287918,-0.9909225702285768,-0.0065590851008892,-0.0739608183503151,0.0286728739738464,0.3979747548842874,-0.0003641522111858,0.067368893491291,0.9149193502191508,0.1232965172943327,0.0547311763799055,2.3176210274150253,0.42194676399230957,,,,,,,,,,,,,,,,,,,,,
1763354779727830272,5.094830274581909,-1.1019073724746704,0.1795330047607422,0.1614760011434555,0.0558501668274402,-0.1123630255460739,-0.9920964241027832,-0.0046721920371055,-0.077090099453926,0.0330662727355957,0.397098056119552,-0.0032721470050541,0.0627780410867264,0.9156207267551576,0.1126008172235686,0.05623574399948,2.3200016111330313,0.4319937229156494,,,,,,,,,,,,,,,,,,,,,
1763354779737876224,5.104876279830933,-1.1210358142852783,0.1987204551696777,0.1507241874933242,0.0575461164116859,-0.1013317555189132,-0.9931869506835938,-0.0105643048882484,-0.0724658519029617,0.0252761840820312,0.3963113232941432,-0.0063055964868408,0.0580238231201205,0.9162591234113896,0.1015059767823785,0.0578761625349634,2.3221860599496433,0.44203972816467285,,,,,,,,,,,,,,,,,,,,,
1763354779747922176,5.114922285079956,-1.0606573820114136,0.2464208602905273,0.1546605974435806,0.0596370697021484,-0.0904702246189117,-0.994111955165863,-0.0204067230224609,-0.0305167213082313,0.0350207686424255,0.3955154140831124,-0.0094759936259704,0.0534250258353129,0.9168551991504826,0.0905940934709332,0.0599184866069394,2.324347092439505,0.4520857334136963,,,,,,,,,,,,,,,,,,,,,
1763354779757969408,5.124969482421875,-0.9794073104858398,0.2757603526115417,0.1921656280755996,0.0621090903878212,-0.0803755670785904,-0.9948277473449708,-0.0244351364672184,0.0295637995004653,0.0270543098449707,0.3945881985272247,-0.0126661160943016,0.0492513946290861,0.9174498102031556,0.0804623587937893,0.0623510786656382,2.3267300378925952,0.46213293075561523,,,,,,,,,,,,,,,,,,,,,
1763354779768015360,5.135015487670898,-0.8729024529457092,0.2818195819854736,0.2066164761781692,0.06475380808115,-0.0712397545576095,-0.9953551292419434,-0.014735497534275,0.0643427819013595,0.0116820335388183,0.3935351068095009,-0.015742363966229,0.0455478978108345,0.9180456516533412,0.0713001494935415,0.0649644415179508,2.329331331775049,0.47217893600463867,,,,,,,,,,,,,,,,,,,,,
1763354779778061312,5.145061492919922,-0.841689944267273,0.2454512119293213,0.2213701158761978,0.0672628208994865,-0.0628677383065223,-0.9957526326179504,0.0033548474311828,0.0628524869680404,-0.0200401544570922,0.3924207212977397,-0.0185990423848531,0.0421633178948425,0.9186306856988874,0.0629092224031301,0.0674472659955436,2.332038169370225,0.4822249412536621,,,,,,,,,,,,,,,,,,,,,
1763354779788108288,5.155108451843262,-0.8738113641738892,0.1918588131666183,0.2128615826368332,0.0693117529153823,-0.0544143319129943,-0.996109902858734,0.0233243554830551,0.0343948006629943,-0.0147696137428283,0.3912764026929857,-0.0212520431929394,0.0386444501833803,0.9192157939215634,0.0544412204761555,0.0694704577199422,2.3348357338462513,0.49227190017700195,,,,,,,,,,,,,,,,,,,,,
1763354779798154240,5.165154457092285,-0.9157479405403136,0.1532188504934311,0.1758667379617691,0.070930503308773,-0.0456009320914745,-0.9964383840560912,0.0242538228631019,-0.0026931352913379,0.0074399709701538,0.3902444920686961,-0.0237635029741499,0.0348728030427976,0.919743746983134,0.0456167516937758,0.0710641669906793,2.337420872458352,0.5023179054260254,,,,,,,,,,,,,,,,,,,,,
1763354779808200448,5.175200462341309,-0.9561057686805724,0.1419044137001037,0.1487469673156738,0.072341464459896,-0.0362726189196109,-0.9967201352119446,0.0124058499932289,-0.0243200287222862,0.005249798297882,0.3893470689726466,-0.0262660804647666,0.0308225549181908,0.920200536101569,0.0362805789468332,0.0724524739726672,2.339738395863245,0.5123639106750488,,,,,,,,,,,,,,,,,,,,,
1763354779818247424,5.185247421264648,-0.9041932225227356,0.128716304898262,0.1348301768302917,0.0736398175358772,-0.0270587857812643,-0.996917724609375,0.0030508488416671,-0.0210369117558002,0.0095368027687072,0.3885561148984912,-0.0286832563652303,0.026802907366983,0.9205884824883772,0.027062089389385,0.0737335838661966,2.341815804349996,0.5224108695983887,,,,,,,,,,,,,,,,,,,,,
1763354779828293376,5.195293426513672,-0.8004335165023804,0.1185286492109298,0.1298636496067047,0.0748595595359802,-0.0185467954725027,-0.9970216155052184,0.0014801621437072,0.0046612937003374,0.0158509612083435,0.3878045969784262,-0.0309201171790924,0.0230900098627722,0.9209333929096422,0.0185478585516924,0.0749425707616384,2.3437727183530552,0.5324568748474121,,,,,,,,,,,,,,,,,,,,,
1763354779838339328,5.205339431762695,-0.6278701424598694,0.0928833708167076,0.1325272619724273,0.0759022980928421,-0.0114618185907602,-0.9970493912696838,0.0066477507352828,0.05366762727499,0.0047245621681213,0.3870786012579955,-0.0327924245124012,0.0199991626867326,0.921246323476312,0.0114620695489073,0.0759803680344671,2.345614674486073,0.5425028800964355,,,,,,,,,,,,,,,,,,,,,
1763354779848386304,5.215386390686035,-0.4341659545898437,0.0569578595459461,0.1406818628311157,0.0766291990876197,-0.006255171727389,-0.997040033340454,0.0195774659514427,0.0984640344977378,-0.0229337215423584,0.3863529309172764,-0.0341509480636349,0.0177113922938429,0.9215483761237698,0.0062552126505047,0.0767058954605019,2.347383539641264,0.5525498390197754,,,,,,,,,,,,,,,,,,,,,
1763354779858432256,5.225432395935059,-0.2971078753471374,0.026875490322709,0.1704781055450439,0.0770455747842788,-0.0027700623031705,-0.9970237016677856,0.027675487101078,0.1223989725112915,-0.0340584516525268,0.3855637371821115,-0.0350312889546762,0.0161538555512961,0.921874395468153,0.0027700658088925,0.0771223033438769,2.3492256776247475,0.5625958442687988,,,,,,,,,,,,,,,,,,,,,
1763354779868478208,5.235478401184082,-0.3292567431926727,-0.1521973311901092,0.1839057654142379,0.076743833720684,0.0013574076583608,-0.9970499277114868,0.0349810197949409,0.1190039217472076,-0.0305379629135131,0.3845248210940808,-0.0357046524003211,0.0141498462181516,0.9223154129987704,-0.0013574080526424,0.0768194398269424,2.3516437563149375,0.5726418495178223,,,,,,,,,,,,,,,,,,,,,
1763354779878525184,5.245525360107422,-0.0164821855723857,-0.0568190068006515,0.1325407475233078,0.0758772790431976,0.0023135922383517,-0.9971144795417786,0.0455826818943023,0.1246700510382652,0.010771095752716,0.3838073635511794,-0.0354985915229828,0.0135133282048101,0.9226316794981644,-0.0023135943140074,0.0759504817291854,2.353248430357183,0.5826888084411621,,,,,,,,,,,,,,,,,,,,,
1763354779888571136,5.255571365356445,-0.1914742290973663,-0.0412072874605655,0.1039312109351158,0.0753829926252365,0.0033729060087352,-0.9971489310264589,0.0012008622288703,-0.0016639190725982,-0.0695319175720214,0.3832553949948214,-0.0354812855207895,0.0129074896736374,0.9228704733270888,-0.0033729123805805,0.0754549999911071,2.354491441742268,0.5927348136901855,,,,,,,,,,,,,,,,,,,,,
1763354779898617344,5.265617370605469,-0.1901420652866363,-0.0152796190232038,0.0656921118497848,0.0751472041010856,0.0052689868025481,-0.9971585273742676,-0.0172401070594787,-0.0239152256399393,0.0369535088539123,0.3828408882727118,-0.035741494823497,0.0119699593341842,0.9230450900730538,-0.0052690112493607,0.0752191560847262,2.3554625769676405,0.602780818939209,,,,,,,,,,,,,,,,,,,,,
1763354779908664320,5.275664329528809,-0.2096329480409622,-0.0273322872817516,0.0536229386925697,0.0749939456582069,0.0072277770377695,-0.9971578121185304,-0.0130585208535194,-0.0116528254002332,0.0152394771575927,0.3825270801389925,-0.0360499041953322,0.0110230196021976,0.9231749972181746,-0.0072278399333129,0.0750663858473232,2.3562155004870498,0.6128277778625488,,,,,,,,,,,,,,,,,,,,,
1763354779918710272,5.285710334777832,-0.194193959236145,-0.0588610172271728,0.0632057934999466,0.0745638459920883,0.0092598292976617,-0.9971732497215272,0.0087186247110366,0.0194572154432535,-0.0027962327003479,0.382229872616351,-0.0362433944726544,0.0099895706185458,0.9233022872593198,-0.0092599616381673,0.0746363148171142,2.3569368789349943,0.6228737831115723,,,,,,,,,,,,,,,,,,,,,
1763354779928756224,5.2957563400268555,-0.1471076756715774,-0.075815238058567,0.0730403140187263,0.0738884359598159,0.0109364250674843,-0.9972065687179564,0.0185950845479965,0.0337565690279006,-0.0009623765945434,0.3818757879674145,-0.0362552393706748,0.0090711091933688,0.9234576941406772,-0.0109366430682042,0.0739602627255032,2.357769376163121,0.6329197883605957,,,,,,,,,,,,,,,,,,,,,
1763354779938803200,5.305803298950195,-0.0824359655380249,-0.0665709003806114,0.0713632330298423,0.0731763914227485,0.0120670264586806,-0.997246026992798,0.0101060792803764,0.0312526747584342,0.0019762516021728,0.381514520922239,-0.0361451529371384,0.008397833780802,0.9236176473612208,-0.0120673193259381,0.0732472011282183,2.3585973395051707,0.6429667472839355,,,,,,,,,,,,,,,,,,,,,
1763354779948849152,5.315849304199219,-0.0164108797907829,-0.0482661984860897,0.0700782611966133,0.0725821331143379,0.0125081343576312,-0.9972839951515198,-0.0021780803799629,0.0352518782019615,0.0055237412452697,0.3811760437686845,-0.0359572465699255,0.0080669341770695,0.9237677490366928,-0.0125084609116591,0.0726517077808364,2.3593506687250723,0.653012752532959,,,,,,,,,,,,,,,,,,,,,
1763354779958895104,5.325895309448242,0.022517941892147,-0.02554577216506,0.0787306874990463,0.0722217187285423,0.0124194314703345,-0.9973112940788268,-0.0089740380644798,0.0433667004108428,0.0017058253288269,0.3808241700563097,-0.0357764592094669,0.0080253947191927,0.923920220709056,-0.0124197511406213,0.0722902340868275,2.3601125386633885,0.6630587577819824,,,,,,,,,,,,,,,,,,,,,
1763354779968942336,5.335942506790161,0.0309276729822158,-0.0181696154177188,0.0791328251361846,0.0720084309577941,0.0120800668373703,-0.9973308444023132,-0.0040915608406066,0.0501605346798896,-0.0072620511054992,0.3804565076235686,-0.0356161678265474,0.0081274282165437,0.9240770110995616,-0.012080360326539,0.0720760735077987,2.360898883396033,0.6731059551239014,,,,,,,,,,,,,,,,,,,,,
1763354779978988288,5.3459882736206055,0.0133010419085621,-0.0202362611889839,0.0556916818022728,0.0718336775898933,0.0118229687213897,-0.9973465204238892,0.0011491030454635,0.0354029834270477,-0.002317726612091,0.38014218035274,-0.0354890098723142,0.0082009289414699,0.9242105771959108,-0.0118232440999511,0.0719006304680896,2.361572006421998,0.6831517219543457,,,,,,,,,,,,,,,,,,,,,
1763354779989034240,5.356034278869629,-0.0108791282400488,-0.0262339673936367,0.0237366780638694,0.0716106593608856,0.0117818200960755,-0.9973630905151368,0.0049426928162574,0.0095804873853921,0.0004911422729492,0.3799647905299755,-0.0353794191881587,0.0081706389866866,0.9242880047349584,-0.0117820925809245,0.0716769852318496,2.3619564963442574,0.6931977272033691,,,,,,,,,,,,,,,,,,,,,
1763354779999081472,5.366081476211548,-0.0473078079521656,-0.0120509359985589,0.0053049405105412,0.0715177506208419,0.0122015653178095,-0.9973646998405457,-0.0001981705427169,-0.0014746356755495,0.0086867213249206,0.3799009623812056,-0.0354168104329401,0.0079562699082896,0.924314755587168,-0.0122018681626901,0.0715841952132571,2.3621095820419176,0.7032449245452881,,,,,,,,,,,,,,,,,,,,,
1763354780009127424,5.376127481460571,-0.0826921686530113,0.009849302470684,0.0041105127893388,0.0717262476682663,0.013163648545742,-0.9973374605178832,-0.0095009133219718,0.0031937733292579,0.0113603472709655,0.3798769204699173,-0.0356967062856418,0.0075499301646866,0.9243172109121964,-0.0131640291240624,0.0717941236486537,2.3621917039947387,0.7132909297943115,,,,,,,,,,,,,,,,,,,,,
1763354780019173376,5.386173486709595,-0.1172094270586967,0.0322041735053062,0.0039489478804171,0.0720605924725532,0.0145489834249019,-0.9972941279411316,-0.0103540495038032,0.0030901758000254,0.0145670771598815,0.3798414048927684,-0.0361155400161127,0.0069712708948449,0.924320088581445,-0.0145494967741298,0.0721307520500963,2.362311855647165,0.723336935043335,,,,,,,,,,,,,,,,,,,,,
1763354780029220352,5.396220445632935,-0.0943496525287628,0.0313559621572494,-0.0176226571202278,0.0723427459597587,0.0161747075617313,-0.997248649597168,-0.0101631879806518,-0.0033573247492313,0.0147352814674377,0.3798598427900765,-0.0365555548654408,0.0062735399116634,0.9243001659367196,-0.0161754120430935,0.0724154822487257,2.362323481396421,0.7333838939666748,,,,,,,,,,,,,,,,,,,,,
1763354780039266304,5.406266450881958,-0.062894694507122,0.0394614562392234,-0.0162396766245365,0.0723433345556259,0.0184717644006013,-0.9972087144851683,-0.0052199214696884,5.240924656391144e-05,0.0064707994461059,0.3799605772874777,-0.036992487260882,0.0052148386689079,0.9242480251867908,-0.0184728155548787,0.0724189616345427,2.362180686406193,0.7434298992156982,,,,,,,,,,,,,,,,,,,,,
1763354780049312256,5.4163124561309814,-0.0222758930176496,0.0446612797677516,-0.0039065782912075,0.0725710242986679,0.0205343998968601,-0.9971518516540528,-0.0014955848455429,0.0256234370172023,0.0043387413024902,0.3800263650044919,-0.0374904658713399,0.0043065799679969,0.9242056001114974,-0.0205358436558751,0.0726502216815119,2.3621037539241354,0.7534759044647217,,,,,,,,,,,,,,,,,,,,,
1763354780059359232,5.426359415054321,-0.001101997680962,0.0428040921688079,0.0092147281393408,0.073041021823883,0.0217515155673027,-0.9970917105674744,0.0001096129417419,0.0427931621670722,0.0026916861534118,0.38003090756978,-0.0379400895453354,0.0038332576895118,0.9241874494127148,-0.0217532316078227,0.0731234552322,2.362130906149053,0.7635228633880615,,,,,,,,,,,,,,,,,,,,,
1763354780069405440,5.436405420303345,-0.0032538319937884,0.0392311960458755,0.0036479225382208,0.0736086070537567,0.0217333436012268,-0.9970503449440002,0.0030210241675376,0.0345563292503356,-0.0006607770919799,0.3799943074048377,-0.0381998295230221,0.0039483668180687,0.9241912250219316,-0.0217350548708923,0.0736926798455348,2.362206943378726,0.773568868637085,,,,,,,,,,,,,,,,,,,,,
1763354780079451392,5.446451425552368,-0.0318550169467926,0.0310767590999603,-0.0121642416343092,0.073890745639801,0.0214612558484077,-0.9970353841781616,0.0044478699564933,0.0104296095669269,0.0008959174156188,0.3799957086279379,-0.0382787530245112,0.0041280986455389,0.9241866426967564,-0.021462904304924,0.0739752174576437,2.362193922642786,0.7836148738861084,,,,,,,,,,,,,,,,,,,,,
1763354780089498368,5.456498384475708,-0.060840331017971,0.0234776958823204,-0.022532993927598,0.0737453997135162,0.0217406041920185,-0.9970400929450988,0.0015262067317962,-0.0040709264576435,0.0162203907966613,0.3800720495361224,-0.0382642741057031,0.0039743042804392,0.9241565278581376,-0.0217423166721759,0.0738298899120076,2.3620384496383173,0.7936618328094482,,,,,,,,,,,,,,,,,,,,,
1763354780099544320,5.4665443897247314,-0.0804364010691642,0.0265829414129257,-0.0236240904778242,0.0735794529318809,0.0223125219345092,-0.9970397353172302,-0.0006577000021934,-0.0073589086532592,0.0183562636375427,0.3801730013394959,-0.0382959240969839,0.0036822425127063,0.9241149647873176,-0.0223143737774387,0.0736643784927165,2.361839303011756,0.8037078380584717,,,,,,,,,,,,,,,,,,,,,
1763354780109590272,5.476590394973755,-0.084385335445404,0.0196912139654159,-0.0249748453497886,0.0734516009688377,0.0228164456784725,-0.9970377683639526,-0.0004840716719627,8.700042963027954e-05,0.0102823972702026,0.3802757687826159,-0.0383323291197799,0.003428989142816,0.9240721615754768,-0.0228184251654519,0.0735369855445431,2.361633631497269,0.8137538433074951,,,,,,,,,,,,,,,,,,,,,
1763354780119637248,5.486637353897095,-0.07823096960783,0.0151592474430799,-0.0240319073200225,0.0734254047274589,0.0235192067921161,-0.997023344039917,0.004760630428791,0.0119879953563213,0.0018908977508544,0.3803720517794391,-0.0384538400423821,0.0031028933625871,0.9240286443139236,-0.0235213762039194,0.0735119152006421,2.3614478515344643,0.823800802230835,,,,,,,,,,,,,,,,,,,,,
1763354780129683200,5.496683359146118,-0.0486632250249385,0.0110438633710145,-0.0222390703856945,0.0734662413597107,0.0249983370304107,-0.996984362602234,0.0063982605934143,0.0195420701056718,0.0017756223678588,0.3804787460207952,-0.0387545529911386,0.0024309286881346,0.9239741001703076,-0.025000941534448,0.0735555154438805,2.361263698970892,0.8338468074798584,,,,,,,,,,,,,,,,,,,,,
1763354780139729152,5.506729364395142,-0.0317879393696785,-0.0052415332756936,-0.0150445383042097,0.0735094621777534,0.0267889164388179,-0.9969346523284912,0.008201353251934,0.0213678237050771,-0.0007612705230712,0.3805834762015453,-0.0391159997392818,0.0016153447912342,0.923917539305351,-0.0267921207373137,0.0736022908499355,2.361093329960381,0.8438928127288818,,,,,,,,,,,,,,,,,,,,,
1763354780149776128,5.5167763233184814,-0.015596717596054,-0.0120957102626562,-0.0014981040731072,0.0735352858901023,0.0280428305268287,-0.9968982934951782,0.0085722580552101,0.0209531411528587,0.0032764673233032,0.3806288798767463,-0.0393672258621984,0.0010422118468367,0.9238890066782794,-0.0280465068147454,0.0736307306557168,2.3610341651748015,0.8539397716522217,,,,,,,,,,,,,,,,,,,,,
1763354780159822336,5.526822328567505,-0.0277412980794906,-0.0181455798447132,0.0100277904421091,0.0735508650541305,0.0283690802752971,-0.9968878626823424,0.0057795718312263,0.0134247392416,0.0071418285369873,0.380602842373453,-0.0394367519681184,0.0008931730977699,0.923896818337936,-0.0283728868599333,0.0736470401963666,2.3611004253869585,0.8639857769012451,,,,,,,,,,,,,,,,,,,,,
1763354780169868288,5.536868333816528,-0.0463765002787113,-0.0224556401371955,-0.0013516298495233,0.0734527260065078,0.0284042656421661,-0.996894121170044,0.0046875327825546,0.0007095038890838,0.0028908252716064,0.3805719587063932,-0.0393980154420421,0.0008568427814316,0.9239112981053368,-0.0284080871844005,0.073548663862908,2.3611686094947,0.8740317821502686,,,,,,,,,,,,,,,,,,,,,
1763354780179915264,5.546915292739868,-0.0749585852026939,-0.0339549332857131,-0.0007055471651256,0.0731825679540634,0.0285817869007587,-0.9969089031219482,0.0044083669781684,-0.0049306657165288,-0.0001918673515319,0.3805650608674746,-0.0393067149887602,0.000722865952606,0.92391815527291,-0.0285856797393546,0.0732780428992009,2.361189280658208,0.8840787410736084,,,,,,,,,,,,,,,,,,,,,
1763354780189961216,5.556961297988892,-0.0884893015027046,-0.0451564565300941,0.004501199349761,0.0728175938129425,0.0292239356786012,-0.9969170093536376,0.0069706067442893,-0.0020327754318714,0.0019066929817199,0.3805436437125398,-0.0392601580985282,0.0003552612234002,0.9239291755064036,-0.0292280961390276,0.0729132984840806,2.3612555392427454,0.8941247463226318,,,,,,,,,,,,,,,,,,,,,
1763354780200007168,5.567007303237915,-0.0935589596629142,-0.0416058674454689,0.0057337987236678,0.0725637599825859,0.030340526252985,-0.9969021677970886,0.007026083767414,0.0003143846988677,0.0043026804924011,0.3804949652366166,-0.0393556325949061,-0.0002117470586085,0.9239451784387244,-0.0303451823715962,0.0726610993205642,2.361394712929411,0.9041707515716553,,,,,,,,,,,,,,,,,,,,,
1763354780210054400,5.577054500579834,-0.0905115082859993,-0.0267803128808736,0.001202696468681,0.0724534392356872,0.0316870622336864,-0.9968683123588562,0.0012159943580627,0.0038353987038135,0.0056421160697937,0.3804563220840143,-0.0395614625436399,-0.0008573210076921,0.9239519698082208,-0.031692369008039,0.0725534745607561,2.36151873295708,0.9142179489135742,,,,,,,,,,,,,,,,,,,,,
1763354780220100352,5.587100505828857,-0.0839616283774375,-0.0283828377723693,0.004420593380928,0.0724499747157096,0.0330672152340412,-0.9968237280845642,-0.0004437565803527,0.0081925466656684,0.0031409263610839,0.3804284824942044,-0.039823225436937,-0.0014976090215255,0.923951311340486,-0.0330732432203842,0.0725532551975697,2.3616198040131877,0.9242639541625977,,,,,,,,,,,,,,,,,,,,,
1763354780230146048,5.597146272659302,-0.0675336495041847,-0.0378021746873855,0.0051111513748764,0.0724275410175323,0.0342923142015934,-0.996783971786499,0.0016081035137176,0.0119418166577816,0.0060155391693115,0.380393827675196,-0.0400465749332406,-0.0020701098458641,0.92395482253937,-0.0342990404399812,0.0725337467276438,2.361730788454274,0.934309720993042,,,,,,,,,,,,,,,,,,,,,
1763354780240193280,5.607193470001221,-0.0495092123746871,-0.0333247631788253,0.0023605502210557,0.0723062977194786,0.0351146087050437,-0.9967641234397888,0.0033620372414588,0.0124317780137062,0.0007466673851013,0.3803773628985497,-0.0401472822672348,-0.0024743460131605,0.9239562515274364,-0.0351218299161749,0.0724141849940773,2.36179013095643,0.9443569183349609,,,,,,,,,,,,,,,,,,,,,
1763354780250239488,5.617239475250244,-0.0549721531569957,-0.0391219332814216,0.0084410794079303,0.0721183121204376,0.035447608679533,-0.9967659711837769,0.0040230378508567,0.0164170153439044,-0.0048666596412658,0.380333307895275,-0.0401235848862173,-0.0026661636341614,0.9239749212128914,-0.0354550359115862,0.0722264433501905,2.3618946890218706,0.9544029235839844,,,,,,,,,,,,,,,,,,,,,
1763354780260285440,5.627285480499268,-0.0778938829898834,-0.0425505861639976,0.0078194085508584,0.0718741118907928,0.0357495062053203,-0.996772825717926,0.0051980316638946,0.0148944184184074,0.0035019516944885,0.3802672143902342,-0.0400678130086977,-0.0028552660284198,0.9240040022997678,-0.0357571249440983,0.0719822294692293,2.3620457557138823,0.9644489288330078,,,,,,,,,,,,,,,,,,,,,
1763354780270332416,5.637332439422607,-0.10808826982975,-0.0386956632137298,-0.0004739412106573,0.0716997310519218,0.0364348851144313,-0.9967605471611024,0.0002912357449531,0.0027344264090061,0.0095627307891845,0.3802288941716197,-0.0401176402335477,-0.0032072557774992,0.924016343713082,-0.0364429515224491,0.0718090645335731,2.362147486089456,0.9744958877563477,,,,,,,,,,,,,,,,,,,,,
1763354780280378368,5.647378444671631,-0.1647904217243194,-0.0249103419482707,-0.0081793535500764,0.0716297626495361,0.037636213004589,-0.9967209696769714,-0.0027515888214111,-0.0098346956074237,0.0077530741691589,0.3802195917532441,-0.0403143962694696,-0.0037767821356777,0.9240095677928396,-0.0376451030937759,0.0717420737841219,2.3622016224832145,0.9845418930053711,,,,,,,,,,,,,,,,,,,,,
1763354780290424320,5.657424449920654,-0.2104862779378891,-0.0235843546688556,-0.0080038513988256,0.0714722052216529,0.0394833460450172,-0.9966608285903932,-0.0031586065888404,-0.0134518481791019,0.007280945777893,0.3802175103623317,-0.0405938490264422,-0.0046614800776911,0.9239941093382756,-0.0394936105523176,0.0715891108743746,2.362256984447527,0.9945878982543945,,,,,,,,,,,,,,,,,,,,,
1763354780300471296,5.667471408843994,-0.2373355776071548,-0.0190054811537265,-0.0130441505461931,0.071275807917118,0.0417981632053852,-0.9965804815292358,-0.0039998069405555,-0.0179944522678852,0.0104964971542358,0.3802214571016277,-0.0409446634772042,-0.0057697092861682,0.923970736352658,-0.0418103447046035,0.0713987985790358,2.362310868500246,1.0046348571777344,,,,,,,,,,,,,,,,,,,,,
1763354780310517248,5.677517414093018,-0.2421495020389557,-0.0052222916856408,-0.0102813867852091,0.071240596473217,0.0443352311849594,-0.9964733719825744,-0.0053989216685295,-0.0158928483724594,0.0137920975685119,0.3802293712927808,-0.041412766524971,-0.006949884283155,0.9239385068211446,-0.0443497689514039,0.0713712953134701,2.3623618094413574,1.0146808624267578,,,,,,,,,,,,,,,,,,,,,
1763354780320563200,5.687563419342041,-0.215121179819107,0.0129706608131527,-0.0047286958433687,0.0714087933301925,0.0467243306338787,-0.9963521361351012,-0.0102668330073356,-0.0043964497745037,0.0143728256225585,0.3802246965906575,-0.0419469410958279,-0.0080234229577562,0.9239076505589264,-0.0467413474726282,0.071547896697577,2.3624365363716544,1.0247268676757812,,,,,,,,,,,,,,,,,,,,,
1763354780330610176,5.697610378265381,-0.1959216594696045,0.0363534800708293,0.0075791026465594,0.0717976614832878,0.0489199198782444,-0.9962188005447388,-0.0130208134651184,0.0084073469042778,0.015002429485321,0.3801836310523542,-0.0425462267529621,-0.0089670788363681,0.9238884513333488,-0.0489394523369266,0.0719457794958852,2.362586371993406,1.034773826599121,,,,,,,,,,,,,,,,,,,,,
1763354780340656384,5.707656383514404,-0.1744478493928909,0.0429187715053558,0.0166936833411455,0.0723584741353988,0.0508263073861599,-0.9960827827453612,-0.0100415870547294,0.0190589427947998,0.0083356499671936,0.3800817078522174,-0.043169391233252,-0.0097470731533283,0.923893511727332,-0.0508482160424876,0.0725156537744243,2.3628620799593953,1.0448198318481445,,,,,,,,,,,,,,,,,,,,,
1763354780350702336,5.717702388763428,-0.1802679151296615,0.0343945249915123,0.0183493718504905,0.0727733969688415,0.0522763915359973,-0.995977520942688,-0.001804769039154,0.0177004151046276,0.0007840394973754,0.3799629562917699,-0.043637487015889,-0.0103446511275581,0.9239139347256214,-0.0523002314636996,0.0729376918999094,2.3631613431699168,1.054865837097168,,,,,,,,,,,,,,,,,,,,,
1763354780360749312,5.727749347686768,-0.2012406885623932,0.0353424474596977,0.0146724320948123,0.0730437263846397,0.0535185411572456,-0.9958917498588562,0.0019074454903602,0.0102174207568168,0.0010492205619812,0.3798388094680285,-0.0439986621169035,-0.0108739230793963,0.9239417388554194,-0.0535441229290275,0.0732139475767304,2.3634651606868218,1.0649127960205078,,,,,,,,,,,,,,,,,,,,,
1763354780370795264,5.737795352935791,-0.2273090332746505,0.0312773957848548,-0.0033646249212324,0.0732616111636161,0.0549728758633136,-0.9957965016365052,0.0026661157608032,-0.0002853833138942,0.0100024938583374,0.3797639714529025,-0.0443765423594248,-0.0115091332856168,0.9239467130313184,-0.0550006015522569,0.0734385569797738,2.3636670647402735,1.0749588012695312,,,,,,,,,,,,,,,,,,,,,
1763354780380841216,5.7478413581848145,-0.236160546541214,0.0296429805457592,-0.0043514147400856,0.0734282508492469,0.0564941875636577,-0.995699107646942,-0.0011473670601844,-0.0036835186183452,0.0074331164360046,0.379725363198142,-0.044743869243102,-0.0121834283642875,0.9239362401071076,-0.0565242803047463,0.0736121719052235,2.3637915466784776,1.0850048065185547,,,,,,,,,,,,,,,,,,,,,
1763354780390888192,5.757888317108154,-0.243548959493637,0.044479452073574,-0.0027473927475512,0.0736169219017028,0.0581845343112945,-0.9955878257751464,-0.0043572783470153,-0.0058774054050445,0.0125250816345214,0.3796853058297728,-0.0451536875467363,-0.0129319013136464,0.9239226078916404,-0.0582174154639798,0.0738088468858516,2.363923505572924,1.0950517654418945,,,,,,,,,,,,,,,,,,,,,
1763354780400934144,5.767934322357178,-0.2347750663757324,0.0397690199315547,0.005892168264836,0.0737446248531341,0.0602025240659713,-0.9954583644866944,-0.0019215121865272,0.0046168118715286,0.0066583752632141,0.3796270404828772,-0.0455975516830647,-0.0138446137337072,0.9239115327320052,-0.0602389490008788,0.0739460017258299,2.3641018338391104,1.105097770690918,,,,,,,,,,,,,,,,,,,,,
1763354780410980352,5.777980327606201,-0.2328986078500747,0.0310482308268547,0.0154611729085445,0.0737461969256401,0.0624804571270942,-0.9953178763389589,0.0009303167462348,0.0092205926775932,0.0105156302452087,0.3795383847456572,-0.0460320543312042,-0.0149032894611778,0.923909894917255,-0.0625211798197776,0.0739579723617401,2.3643496021312984,1.1151437759399414,,,,,,,,,,,,,,,,,,,,,
1763354780421027072,5.788027286529541,-0.2409321963787078,0.0203552730381488,0.022574208676815,0.0737475231289863,0.0650309696793556,-0.9951543807983398,0.0046063587069511,0.0087910518050193,0.0070257186889648,0.3794019676539419,-0.0465176146864897,-0.0160907701855832,0.923921660865747,-0.065076895055135,0.0739714010472799,2.3647062822926905,1.1251907348632812,,,,,,,,,,,,,,,,,,,,,
1763354780431072000,5.798072099685669,-0.2625360488891601,0.0245641339570283,0.0293769873678684,0.0739201679825782,0.0676628649234771,-0.9949660897254944,0.0041742995381355,0.0049231871962547,0.0010391473770141,0.3792306407495404,-0.0470973967150452,-0.0172853604607233,0.923941167788837,-0.0677146005198017,0.0741579189558638,2.365142678275082,1.1352355480194092,,,,,,,,,,,,,,,,,,,,,
1763354780441117952,5.808118104934692,-0.267216682434082,0.0240300372242927,0.0275528095662593,0.0742126405239105,0.0701932162046432,-0.9947690367698668,0.0005706846714019,-0.0022763535380363,0.0032529234886169,0.3790323314421118,-0.0477126408219769,-0.0184118455161554,0.9239691072343597,-0.0702509894494697,0.0744649466552025,2.3656361867960864,1.1452815532684326,,,,,,,,,,,,,,,,,,,,,
1763354780451164928,5.818165063858032,-0.2602317333221435,0.0121664525941014,0.0273426882922649,0.0744820907711982,0.0724359825253486,-0.9945880770683287,-0.0001412704586982,-0.0075556114315986,0.0075885653495788,0.3788270532814798,-0.0482618430829541,-0.0194101899317959,0.9240043130411522,-0.0724994769869267,0.0747478535871089,2.3661374054038617,1.1553285121917725,,,,,,,,,,,,,,,,,,,,,
1763354780461210880,5.828211069107056,-0.2156051397323608,0.0108633674681186,0.0334768369793891,0.0745889917016029,0.0743322968482971,-0.9944401383399964,0.000514768064022,0.0003442168235778,0.0101566910743713,0.378633238292987,-0.0486693854257684,-0.0202785856345969,0.9240437768916572,-0.0744009177470673,0.0748658293844572,2.3666021995675455,1.165374517440796,,,,,,,,,,,,,,,,,,,,,
1763354780471257088,5.838257074356079,-0.1690307110548019,0.0181029047816991,0.0469404458999633,0.0746441930532455,0.0756827369332313,-0.9943341612815856,0.0019244104623794,0.0204018577933311,0.0051526427268981,0.3784002061803742,-0.0489475933835236,-0.0209061445220222,0.9241105374866204,-0.0757551728515123,0.0749289873132715,2.36713794106743,1.1754205226898193,,,,,,,,,,,,,,,,,,,,,
1763354780481303808,5.848304033279419,-0.1230131611227989,0.0262782759964466,0.0571554414927959,0.074843019247055,0.0768459513783454,-0.9942299723625184,0.0025648176670074,0.039532832801342,-0.0003684163093566,0.3781260265341777,-0.049255585322865,-0.0214220655468783,0.924194663781292,-0.0769217896317622,0.0751356607732171,2.367761847596181,1.1854674816131592,,,,,,,,,,,,,,,,,,,,,
1763354780491350016,5.858350038528442,-0.0871520936489105,0.0292852520942688,0.053421426564455,0.0751657336950302,0.0777546688914299,-0.9941349625587464,0.0022115856409072,0.0449412539601326,-0.0019282698631286,0.3778474769010024,-0.049572274764802,-0.0217969807577078,0.9242828084264612,-0.0778332290345495,0.0754655976419378,2.368392146324365,1.1955134868621826,,,,,,,,,,,,,,,,,,,,,
1763354780501395968,5.868396043777466,-0.0623483434319496,0.0392077937722206,0.0418649055063724,0.0756064280867576,0.0783753842115402,-0.9940528273582458,0.0004891529679298,0.0369963198900222,-5.728006362915039e-05,0.3776043680163818,-0.0498895738748759,-0.0220143376216888,0.9243599754392164,-0.0784558492396896,0.0759126092108386,2.368942532111864,1.205559492111206,,,,,,,,,,,,,,,,,,,,,
1763354780511442944,5.878443002700806,-0.0532714910805225,0.0572347268462181,0.032093234360218,0.0761706978082656,0.0788200572133064,-0.9939745664596558,-0.0038135200738906,0.0273505970835685,0.0078295469284057,0.3774163291364202,-0.0502320108297774,-0.0221238652854667,0.924415662459326,-0.0789018993771903,0.0764829608731854,2.3693729673935593,1.215606451034546,,,,,,,,,,,,,,,,,,,,,
1763354780521488896,5.888489007949829,-0.035999558866024,0.0620310828089714,0.0253952071070671,0.0767809823155403,0.07904002815485,-0.9939101338386536,-0.0067583993077278,0.0209660753607749,0.006864845752716,0.3772786010884555,-0.0505542480568047,-0.022117886070489,0.9244543877741812,-0.0791225559826104,0.0770983081315965,2.3696904532692096,1.2256524562835693,,,,,,,,,,,,,,,,,,,,,
1763354780531534848,5.8985350131988525,-0.0143712311983108,0.054191268980503,0.0150991603732109,0.077330432832241,0.0789999365806579,-0.993870735168457,0.0003825798630714,0.0211129784584045,0.004612922668457,0.3771868818847445,-0.0507998149341147,-0.0220003891072044,0.924481196004636,-0.0790823442771265,0.0776508868440904,2.369901234760364,1.2356984615325928,,,,,,,,,,,,,,,,,,,,,
1763354780541581824,5.908581972122192,0.0041572791524231,0.044178482145071,0.0123917907476425,0.0777875408530235,0.0789632052183151,-0.9938379526138306,0.0040148198604583,0.0277720168232917,0.0050837397575378,0.3771275558327547,-0.0510039022131095,-0.021900163958753,0.9244964474823808,-0.0790454910083151,0.0781105968737576,2.370039456902454,1.2457454204559326,,,,,,,,,,,,,,,,,,,,,
1763354780551627776,5.918627977371216,0.0229165870696306,0.0419057421386241,0.0081890560686588,0.0782116204500198,0.0792362615466117,-0.9937829375267028,0.005269207060337,0.0298945978283882,8.58306884765625e-06,0.3770851891301156,-0.0512520044189371,-0.0219489251873195,0.9244989317393308,-0.0793194070871715,0.0785390190993671,2.370147764099456,1.255791425704956,,,,,,,,,,,,,,,,,,,,,
1763354780561673984,5.928673982620239,0.027479913085699,0.0406002588570117,0.0049218898639082,0.0786006525158882,0.0798833519220352,-0.9937004446983336,0.0044834464788436,0.0254022926092147,0.0055412650108337,0.3770771100628358,-0.0515558414401489,-0.022175871413407,0.924479936586272,-0.0799685572975708,0.0789345945469817,2.370189798812806,1.2658374309539795,,,,,,,,,,,,,,,,,,,,,
1763354780571720960,5.938720941543579,0.0238252561539411,0.0367389395833015,-0.0036657394375652,0.0789515450596809,0.080665037035942,-0.9936094880104064,0.001614861190319,0.017891488969326,0.0090666413307189,0.3770998327574917,-0.0518683348410425,-0.0224707287355055,0.9244460944407056,-0.0807527719554318,0.0792927300874578,2.3701675899192916,1.2758843898773193,,,,,,,,,,,,,,,,,,,,,
1763354780581766912,5.9487669467926025,0.0252043735235929,0.0484881401062011,-0.0105986576527357,0.0792956575751304,0.0812723189592361,-0.9935325980186462,-0.0008197054266929,0.0097005814313888,0.0119346976280212,0.377152168440629,-0.052145246475957,-0.0226843149080188,0.9244038703236754,-0.0813620594035111,0.079643013563363,2.3700769550860548,1.2859303951263428,,,,,,,,,,,,,,,,,,,,,
1763354780591812864,5.958812952041626,0.0229606609791517,0.051244780421257,-0.007158120162785,0.0796318799257278,0.0816657990217208,-0.9934734106063844,-0.0031090527772903,0.0065452605485916,0.0083354711532592,0.3772193522112748,-0.0523781616756595,-0.0227993764773274,0.9243605158259584,-0.0817568484146833,0.0799840121216818,2.3699493310495017,1.2959764003753662,,,,,,,,,,,,,,,,,,,,,
1763354780601859840,5.968859910964966,0.0543538033962249,0.0387893766164779,-0.0094174575060606,0.079869121313095,0.0817665383219719,-0.9934461116790771,0.0011703073978424,0.0131126120686531,0.0079877376556396,0.3772821596884104,-0.0525092066778301,-0.0227976384347576,0.924327478084118,-0.0818579283045411,0.0802234828676636,2.3698216881380265,1.306023359298706,,,,,,,,,,,,,,,,,,,,,
1763354780611905792,5.978905916213989,0.0763856023550033,0.0272786598652601,-0.0047766328789293,0.0801539346575737,0.0815567672252655,-0.9934403896331788,0.0059056356549263,0.0169234573841094,0.0055406093597412,0.377338658149746,-0.052603043880682,-0.0226432515864889,0.9243027984524014,-0.0816474498499532,0.0805087861047152,2.3697013284541493,1.3160693645477295,,,,,,,,,,,,,,,,,,,,,
1763354780621951744,5.988951921463013,0.1039717271924018,0.0271076522767543,0.0047373319976031,0.0804786831140518,0.0812714025378227,-0.9934375286102296,0.0064353719353675,0.0252349451184272,0.0058429241180419,0.3773774052853025,-0.0527005865407184,-0.0224472561046866,0.9242863057178712,-0.0813611378456942,0.0808337933524433,2.3696188074007747,1.326115369796753,,,,,,,,,,,,,,,,,,,,,
1763354780631998976,5.998999118804932,0.1050857231020927,0.0265467893332242,0.0156496353447437,0.0808341428637504,0.0808586999773979,-0.9934423565864564,0.004660852253437,0.0234351232647895,0.0003851056098937,0.3773690970033671,-0.0527869973149763,-0.0221890830579142,0.924290970775838,-0.0809470722878532,0.0811888615264878,2.3696353408215147,1.3361625671386719,,,,,,,,,,,,,,,,,,,,,
1763354780642044928,6.009045124053955,0.0823207944631576,0.0187572762370109,0.0117492582648992,0.0811304450035095,0.0804945155978202,-0.9934477806091307,0.0050817131996154,0.0149644762277603,-0.0021729469299316,0.3773460732746857,-0.0528548056241324,-0.0219654467843945,0.924301874804813,-0.0805816940115106,0.0814847059336326,2.369683428329524,1.3462085723876953,,,,,,,,,,,,,,,,,,,,,
1763354780652091136,6.0190911293029785,0.0463289655745029,0.0048470539040863,0.0011141910217702,0.0812541395425796,0.0803113132715225,-0.993452489376068,0.0063465684652328,-0.0014081075787544,0.0022873282432556,0.3773411317281672,-0.0528772953794547,-0.0218573675469045,0.9243051094913928,-0.0803978949218619,0.0816080091543783,2.369692430471815,1.3562545776367188,,,,,,,,,,,,,,,,,,,,,
1763354780662138112,6.029138088226318,0.0081955641508102,0.0045310696586966,-0.0034265879075974,0.0812405943870544,0.0803426429629325,-0.9934510588645936,0.004254400730133,-0.0159658044576644,0.007199227809906,0.3773690157041875,-0.0528776259783107,-0.0218728631742155,0.924293359608092,-0.0804293262318402,0.0815945814611728,2.36963258714001,1.3663015365600586,,,,,,,,,,,,,,,,,,,,,
1763354780672184064,6.039184093475342,-0.0119291460141539,0.0069843740202486,-0.0039709378033876,0.0811956897377967,0.0805914178490638,-0.9934346079826356,0.0006677135825157,-0.0184118449687957,0.0083882212638854,0.3773954535860307,-0.0529047854472249,-0.0219952006760235,0.9242780952547625,-0.0806789112300976,0.0815510280670461,2.3695804228863464,1.376347541809082,,,,,,,,,,,,,,,,,,,,,
1763354780682230016,6.049230098724365,-0.0102958288043737,0.0049803452566266,-0.0033314237371087,0.0812774822115898,0.0810698345303535,-0.9933889508247375,0.001654028892517,-0.0072173029184341,0.0062369108200073,0.377421147583809,-0.0530346144649425,-0.022200072779419,0.9242551895362212,-0.0811589015166094,0.0816365439212521,2.3695384189527573,1.3863935470581055,,,,,,,,,,,,,,,,,,,,,
1763354780692276992,6.059277057647705,-0.0029154107905924,0.0003048996441066,0.0045842896215617,0.0814226195216178,0.0815620943903923,-0.9933367967605592,0.0036298707127571,0.0046500638127326,0.0049182176589965,0.377414636593281,-0.0531957698524278,-0.0224012160386888,0.9242437431230598,-0.0816527938722241,0.081785953416166,2.3695681556069528,1.3964405059814453,,,,,,,,,,,,,,,,,,,,,
1763354780702322944,6.0693230628967285,0.0053406548686325,0.0070520183071494,0.0055777369998395,0.0816101878881454,0.0821390822529792,-0.9932738542556764,0.0017943531274795,0.0127858445048332,0.0035582780838012,0.3773939841186254,-0.0533924613764651,-0.022634439921544,0.9242352392626472,-0.0822317260387629,0.0819786837683127,2.3696317996425704,1.4064865112304688,,,,,,,,,,,,,,,,,,,,,
1763354780712368896,6.079369068145752,0.0047403783537447,0.0127679612487554,0.00168366311118,0.0818249657750129,0.0826031416654586,-0.993217706680298,-0.0003125146031379,0.0087207183241844,0.0096514225006103,0.3773788751646649,-0.0535804251522152,-0.0228098376514194,0.9242262055737728,-0.0826973675402629,0.0821980892955657,2.369681186261998,1.4165325164794922,,,,,,,,,,,,,,,,,,,,,
1763354780722415872,6.089416027069092,0.0181975327432155,0.0153353149071335,-0.000272961333394,0.0821020677685737,0.0827864035964012,-0.9931795597076416,-0.0036108642816543,0.0022813379764556,0.0112765431404113,0.3773918696751929,-0.0537445378697158,-0.0228416025701879,0.9242105415538154,-0.0828812598575353,0.0824783485709605,2.36966437992402,1.426579475402832,,,,,,,,,,,,,,,,,,,,,
1763354780732461824,6.099462032318115,0.0312049426138401,0.0140197128057479,-0.0045537264086306,0.0823951140046119,0.0824525952339172,-0.9931830763816832,-0.0028052702546119,0.0034696459770202,0.0092048048973083,0.3774084543983944,-0.0538175649559053,-0.0226303666133628,0.9242047480923432,-0.0825463042415891,0.0827711088833791,2.3696275385375483,1.4366254806518555,,,,,,,,,,,,,,,,,,,,,
1763354780742508032,6.109508037567139,0.0347786024212837,0.0082084629684686,0.0024683191440999,0.0826070457696914,0.0817042291164398,-0.9932273030281068,0.0018045678734779,0.0121831074357032,0.0055564045906066,0.3774158594926028,-0.0537736076558685,-0.0222427985394904,0.924213775006598,-0.0817954043369377,0.0829793550554835,2.369598137572419,1.446671485900879,,,,,,,,,,,,,,,,,,,,,
1763354780752555008,6.1195549964904785,0.0300019588321447,-0.0024833302013576,0.0020502032712101,0.0826590806245803,0.0809449404478073,-0.9932851791381836,0.0062233656644821,0.0187102109193801,-0.0001382827758789,0.3774107743191999,-0.0536529425572863,-0.0218811772803587,0.9242313878660268,-0.0810335935189971,0.0830265721374765,2.3695910091037535,1.4567184448242188,,,,,,,,,,,,,,,,,,,,,
1763354780762600960,6.129601001739502,0.0237727258354425,-0.0139097888022661,-0.0064933947287499,0.0825842171907424,0.0805384963750839,-0.9933243989944458,0.00843445956707,0.0118229612708091,0.0013047456741333,0.3774167791635218,-0.0535407997359618,-0.0217065482445874,0.924239539642722,-0.080625815957891,0.0829484540821327,2.36956590202691,1.4667644500732422,,,,,,,,,,,,,,,,,,,,,
1763354780772646912,6.139647006988525,0.0258124414831399,-0.0137694403529167,-0.0036467420868575,0.0825050622224807,0.0804423913359642,-0.9933387637138368,0.0049735680222511,-0.0005016028881072,0.0053017139434814,0.3774474082180443,-0.0534863958622626,-0.0216752034480363,0.9242309097409525,-0.0805293994183637,0.0828681204461974,2.3694953004271833,1.4768104553222656,,,,,,,,,,,,,,,,,,,,,
1763354780782693888,6.149693965911865,0.0315606072545051,-0.0017023915424942,-0.0018937611021101,0.0824342593550682,0.0805070102214813,-0.9933394193649292,0.0008176937699317,-0.0032059848308563,0.0073622465133666,0.3774729328091079,-0.0534663897900571,-0.0217170956859752,0.9242207008353718,-0.0805942294066722,0.0827972751689642,2.369440112896588,1.4868574142456055,,,,,,,,,,,,,,,,,,,,,
1763354780792739840,6.159739971160889,0.0332826077938079,0.0021328267175704,0.0040301741100847,0.0824226289987564,0.0804598480463028,-0.9933441877365112,-0.0027870163321495,0.0058286041021347,0.0105103850364685,0.3774907086705557,-0.0534524084968254,-0.0216964024823083,0.9242147361417866,-0.0805469121133806,0.0827852498190699,2.3694001799560773,1.496903419494629,,,,,,,,,,,,,,,,,,,,,
1763354780802785792,6.169785976409912,0.0354032143950462,0.0019765659235417,0.002298675943166,0.0823723152279853,0.0802484601736068,-0.993365466594696,-0.0020958334207534,0.0104497745633125,0.0070374011993408,0.3774886566514849,-0.0533886651802345,-0.02160804218326,0.9242214069486387,-0.0803348427371257,0.0827331814050806,2.3693982454538403,1.5069494247436523,,,,,,,,,,,,,,,,,,,,,
1763354780812832768,6.179832935333252,0.0199579466134309,-0.0021105874329805,-0.0007003098726272,0.082302875816822,0.0801241844892501,-0.9933812618255616,0.0002776905894279,0.0065304785966873,0.004565954208374,0.3775006970576869,-0.0533329756205555,-0.0215628774163479,0.924220690645536,-0.0802101658312509,0.0826624507008038,2.3693672732589377,1.5169963836669922,,,,,,,,,,,,,,,,,,,,,
1763354780822878720,6.189878940582275,0.0001448942348361,-0.0004328624345362,-0.0014251330867409,0.0823390632867813,0.0803452283143997,-0.99336040019989,0.0024540275335311,-2.296268939971924e-05,0.0050181150436401,0.3775127691362974,-0.0533922220818822,-0.0216578124701385,0.9242101428027198,-0.0804319260536222,0.0827003597025631,2.369347638421442,1.5270423889160156,,,,,,,,,,,,,,,,,,,,,
1763354780832924928,6.199924945831299,-0.0036144240293651,0.0019906139932572,-0.0106990588828921,0.0824965834617614,0.0808069184422493,-0.9933099150657654,0.0007858872413635,-0.0070154145359992,0.0080499053001403,0.37754295753506,-0.053554193794522,-0.0218402913521555,0.9241841974233876,-0.080895122727718,0.082862041278679,2.369297812672962,1.537088394165039,,,,,,,,,,,,,,,,,,,,,
1763354780842971904,6.209971904754639,-0.0002596066333353,0.0011309124529361,-0.0081670144572854,0.0827267616987228,0.0811221078038215,-0.9932650923728944,-0.0018704384565353,-0.005850501358509,0.0038699507713317,0.3775889849621103,-0.0537224100414565,-0.0219401533552387,0.9241532737848904,-0.0812113488633279,0.0830959121311039,2.369211682444825,1.547135353088379,,,,,,,,,,,,,,,,,,,,,
1763354780853017856,6.220017910003662,0.0183859821408987,0.006939266808331,-0.0060450080782175,0.0828872770071029,0.0810081735253334,-0.9932609796524048,-0.0008255094289779,0.003632329404354,0.0050560235977172,0.3776178798297718,-0.0537760006731904,-0.0218552401341759,0.9241402543343872,-0.0810970360539947,0.0832567390748815,2.369149867549538,1.5571813583374023,,,,,,,,,,,,,,,,,,,,,
1763354780863063808,6.2300639152526855,0.0397760272026062,0.0180349946022033,-0.0034313814248889,0.0830255523324012,0.0806491300463676,-0.9932786226272584,-0.0010095685720443,0.0129330158233642,0.007103145122528,0.3776453645675205,-0.0537724583021804,-0.0216609837264634,0.9241337960657762,-0.0807368178236972,0.0833935131560091,2.3690844991435083,1.5672273635864258,,,,,,,,,,,,,,,,,,,,,
1763354780873111040,6.2401111125946045,0.0411736518144607,0.012843694537878,-0.0009770123288035,0.0831099525094032,0.080383576452732,-0.9932931065559388,-0.0006514564156532,0.0170590505003929,0.0047982335090637,0.377671936394725,-0.0537616658711347,-0.0215203289810059,0.9241268804402222,-0.0804703932264079,0.0834766844769992,2.369022238983718,1.5772745609283447,,,,,,,,,,,,,,,,,,,,,
1763354780883156992,6.250157117843628,0.0342419147491455,0.0118900835514068,-0.0025523607619106,0.0831767693161964,0.080250009894371,-0.993298351764679,0.0018146857619285,0.0125997215509414,0.0089386105537414,0.377688532687907,-0.0537676406663855,-0.0214447821672577,0.924121509331728,-0.0803363980046358,0.0835430490753573,2.368984461681544,1.5873205661773682,,,,,,,,,,,,,,,,,,,,,
1763354780893202944,6.260203123092651,0.02226248010993,0.0096306577324867,-0.0026018957141786,0.0832867249846458,0.0801130533218383,-0.9933001399040222,0.000346690416336,-0.0008131340146064,0.0055072307586669,0.3777103208096157,-0.053793137450505,-0.0213591849885582,0.9241131646589164,-0.0801989985464568,0.0836528185049867,2.368936471105368,1.5973665714263916,,,,,,,,,,,,,,,,,,,,,
1763354780903249920,6.270250082015991,0.0113631263375282,0.0081292670220136,-0.0068232724443078,0.0834180414676666,0.0799562558531761,-0.993301808834076,0.0006731450557708,-0.0096132308244705,0.0063328146934509,0.3777375190270658,-0.0538249102000393,-0.0212600226416,0.9241024226562335,-0.0800416923840776,0.0837839640086014,2.368876479524281,1.6074135303497314,,,,,,,,,,,,,,,,,,,,,
1763354780913295872,6.280296087265015,0.0049915141426026,-7.060635834932327e-05,-0.0009526000358164,0.083486683666706,0.0797707363963127,-0.9933109283447266,0.0035494491457939,-0.0059029385447502,0.006784439086914,0.3777564223482872,-0.0538218669949431,-0.0211599099313036,0.9240971207263928,-0.0798555804926421,0.0838518113158277,2.3688322437973928,1.6174595355987549,,,,,,,,,,,,,,,,,,,,,
1763354780923342080,6.290342092514038,0.0024591814726591,-0.0062111234292387,0.0043905889615416,0.0834015682339668,0.0796350091695785,-0.9933289885520936,0.0043059512972831,0.0012518316507339,0.0023316740989685,0.3777529665482869,-0.0537563229381979,-0.0211133237619396,0.9241034583424054,-0.0797194237397232,0.0837652099375171,2.368834332428425,1.6275055408477783,,,,,,,,,,,,,,,,,,,,,
1763354780933389056,6.300389051437378,-0.0043153678998351,-0.0073224604129791,0.0135164428502321,0.0833330377936363,0.0797534212470054,-0.9933252334594728,0.0029248967766761,0.0036816447973251,0.0026025772094726,0.3777127765227784,-0.0537461284840483,-0.0211835401835885,0.9241188932755988,-0.0798382078716843,0.0836970180710218,2.3689228452793407,1.6375524997711182,,,,,,,,,,,,,,,,,,,,,
1763354780943435008,6.310435056686401,-0.0337833128869533,-0.003144958987832,0.0140102822333574,0.0832819044589996,0.0802776366472244,-0.9932872653007508,0.0004125386476516,-0.000321589410305,0.008866548538208,0.3776400347551164,-0.0538206651211972,-0.0214404918633358,0.9241383683128364,-0.0803641139062015,0.0836490832275333,2.369092641467172,1.6475985050201416,,,,,,,,,,,,,,,,,,,,,
1763354780953480960,6.320481061935425,-0.051091194152832,-0.0049375323578715,0.0102621503174304,0.0832659676671028,0.0811135321855545,-0.9932206869125366,-0.0029437094926834,-0.0121132954955101,0.0102495551109313,0.3775756255587386,-0.0539711697769076,-0.0218348119021158,0.9241466472575822,-0.0812027436563052,0.0836387258444576,2.369253058870949,1.657644510269165,,,,,,,,,,,,,,,,,,,,,
1763354780963527936,6.330528020858765,-0.064631700515747,-0.0089757507666945,0.0103432871401309,0.083259992301464,0.0819944366812706,-0.9931488633155824,-0.0035480856895446,-0.0214780792593956,0.0130616426467895,0.3775157297602858,-0.0541349628076018,-0.0222478797725797,0.9241517647257752,-0.0820865897215453,0.0836387758710311,2.369405169732538,1.6676914691925049,,,,,,,,,,,,,,,,,,,,,
1763354780973573888,6.340574026107788,-0.0550611019134521,-0.003666472621262,0.0064358967356383,0.0832251086831092,0.0825283601880073,-0.9931075572967528,-0.0008276551961898,-0.0138790681958198,0.0127914547920227,0.3774684277066731,-0.0542194233174137,-0.0225048275373312,0.924159883010862,-0.0826223292866027,0.083607355420089,2.369520165619923,1.6777374744415283,,,,,,,,,,,,,,,,,,,,,
1763354780983619840,6.3506200313568115,-0.047841340303421,-0.0170783512294292,0.0146798882633447,0.083167552947998,0.0827700197696685,-0.9930922985076904,0.0038075447082519,0.0087216794490814,-0.001185655593872,0.3774023853779437,-0.0542371287082206,-0.0226316593162336,0.9241827356990228,-0.0828648215571703,0.0835510837135636,2.369667812642949,1.6877834796905518,,,,,,,,,,,,,,,,,,,,,
1763354780993666816,6.360666990280151,-0.0318716950714588,-0.0338389538228511,0.0167683400213718,0.083053670823574,0.0829729884862899,-0.9930848479270936,0.0103301107883453,0.0195965841412544,-0.0045652389526367,0.3773064621997899,-0.0542205212097199,-0.0227529665716813,0.9242197523888028,-0.0830684893184477,0.0834378278941607,2.369877393110209,1.6978304386138916,,,,,,,,,,,,,,,,,,,,,
1763354781003712768,6.370712995529175,-0.0192203149199485,-0.0284034758806228,0.0124802961945533,0.082853190600872,0.0831646919250488,-0.9930855631828308,0.0089589357376098,0.013103000819683,-0.0014212131500244,0.3772325500889212,-0.0541620053681941,-0.0228841458186644,0.9242501341524304,-0.0832608583395548,0.0832372927603175,2.370037195561029,1.707876443862915,,,,,,,,,,,,,,,,,,,,,
1763354781013758976,6.380759000778198,-0.0208126194775104,-0.0187929272651672,0.0168811697512865,0.0827005878090858,0.0833778232336044,-0.99308043718338,0.0002156719565391,0.0085411146283149,0.0056536793708801,0.3771489038453813,-0.0541295799101313,-0.023016764785981,0.9242828664871304,-0.0834747347835479,0.0830851188167993,2.3702196764807613,1.7179224491119385,,,,,,,,,,,,,,,,,,,,,
1763354781023805952,6.390805959701538,-0.0125195020809769,0.0029927617870271,0.0132765807211399,0.0827102810144424,0.0834676995873451,-0.9930720925331116,-0.0092544704675674,0.0005777105689048,0.0125117897987365,0.3770760336657864,-0.0541493970989852,-0.0230608801352689,0.9243103050040794,-0.0835649210960825,0.0830955049044339,2.370379767626281,1.7279694080352783,,,,,,,,,,,,,,,,,,,,,
1763354781033851904,6.4008519649505615,-0.0256560761481523,-0.0060196411795914,0.0126645863056182,0.0826783329248428,0.0833212882280349,-0.9930870532989502,-0.0054078251123428,0.0037758871912956,0.0029289722442626,0.3770184585242593,-0.0541052016861396,-0.023002390365522,0.9243379830944316,-0.0834179969415612,0.0830623116875402,2.3705001994937387,1.7380154132843018,,,,,,,,,,,,,,,,,,,,,
1763354781043897856,6.410897970199585,-0.0368261709809303,-0.0190209280699491,0.016361940652132,0.0825369283556938,0.0831185430288314,-0.993115782737732,0.0035379007458686,0.0070609003305435,0.0029577016830444,0.3769261415369608,-0.0539985244350022,-0.0229405006306279,0.9243833720452548,-0.0832145511069284,0.0829185091571013,2.3706912862503757,1.7480614185333252,,,,,,,,,,,,,,,,,,,,,
1763354781053944832,6.420944929122925,-0.0330825671553611,-0.0187857709825038,0.0073122545145452,0.0823830962181091,0.0831362083554267,-0.9931271076202391,0.0033255219459533,-0.0020662620663642,0.0106747150421142,0.3768556712176762,-0.0539285905641697,-0.0229818922739027,0.9244151527119776,-0.0832322761697159,0.0827637387424354,2.370840333477364,1.758108377456665,,,,,,,,,,,,,,,,,,,,,
1763354781063990784,6.430990934371948,-0.0350734815001487,-0.0175834205001592,0.0012314580380916,0.082322359085083,0.0836671963334083,-0.9930875301361084,-0.0007641315460205,-0.0087312832474708,0.0097196102142333,0.3768300648348035,-0.0540007999911914,-0.0232411571989536,0.9244149184798198,-0.08376511808938,0.0827062721696394,2.370907381908921,1.7681543827056885,,,,,,,,,,,,,,,,,,,,,
1763354781074036736,6.441036939620972,-0.0224921740591526,-0.0122975781559944,0.0048051541671156,0.0824193283915519,0.0843783915042877,-0.9930192828178406,-0.0007695481181144,0.0024593770503997,0.004387080669403,0.3768042484431061,-0.0541806723739546,-0.0235542231776909,0.9244070454335268,-0.0844788419315256,0.0828089134708358,2.3709833204465953,1.778200387954712,,,,,,,,,,,,,,,,,,,,,
1763354781084083712,6.4510838985443115,-0.0059696901589632,-0.0123369600623846,0.0087068639695644,0.082516148686409,0.084761768579483,-0.9929786324501038,-0.0010342150926589,0.014527179300785,0.0008063912391662,0.3767556724523671,-0.0542974695910017,-0.023716603413798,0.9244158062068588,-0.0848635909729862,0.0829091288278128,2.3711002565071557,1.7882473468780518,,,,,,,,,,,,,,,,,,,,,
1763354781094129920,6.461129903793335,0.0049838917329907,-0.012371314689517,0.0094032790511846,0.0824203416705131,0.0849266424775123,-0.992972493171692,0.0011825636029243,0.0148048028349876,0.0038367509841918,0.3767117975318922,-0.0542831663677875,-0.0238137717650491,0.9244320357142144,-0.0850290675546479,0.0828138112147135,2.371196755206725,1.7982933521270752,,,,,,,,,,,,,,,,,,,,,
1763354781104175872,6.471175909042358,0.0047790938988327,-0.0218252707272768,0.0045854430645704,0.08206158131361,0.0848849639296531,-0.9930057525634766,0.0045625567436218,0.0115048065781593,0.0023746490478515,0.3766790324400333,-0.0541075015884332,-0.0238641521676179,0.9244544013517207,-0.0849872348219733,0.0824522290656178,2.371257339392846,1.8083393573760986,,,,,,,,,,,,,,,,,,,,,
1763354781114223104,6.481223106384277,0.0110263377428054,-0.0218825284391641,0.0008309190161526,0.081735610961914,0.0848620384931564,-0.993034601211548,0.0025844648480415,0.007346823811531,0.0062639713287353,0.3766596642050852,-0.0539510110068208,-0.0239162441056062,0.9244699643480456,-0.0849642261466521,0.0821238013407319,2.3712899412321837,1.8183865547180176,,,,,,,,,,,,,,,,,,,,,
1763354781124269056,6.491269111633301,0.0294026806950569,-0.0084559340029954,0.0078040515072643,0.0817001834511756,0.084781102836132,-0.9930444359779358,-0.0022476762533187,0.0066495686769485,0.0060907006263732,0.3766412963223328,-0.0539186434588731,-0.0238864618879534,0.9244802404322632,-0.0848829949472108,0.0820875593520592,2.37132707584805,1.828432559967041,,,,,,,,,,,,,,,,,,,,,
1763354781134315008,6.501315116882324,0.042544849216938,-0.0058255302719771,0.0170934237539768,0.0817536190152168,0.0843463018536567,-0.993077039718628,-0.0031098276376724,0.0087017863988876,0.0048111081123352,0.3765913377967826,-0.0538594687234226,-0.0236775768790089,0.9245092928062272,-0.0844466307957838,0.0821383180770543,2.3714257691676677,1.8384785652160645,,,,,,,,,,,,,,,,,,,,,
1763354781144361984,6.511362075805664,0.0344157814979553,-0.0123739447444677,0.0168927982449531,0.0817034691572189,0.0837354883551597,-0.9931328892707824,-0.0009997338056564,0.0098161399364471,0.0082848668098449,0.3765144621819798,-0.0537179617026925,-0.0234081680743489,0.92455572080338,-0.0838336541249944,0.0820835673432861,2.371575992624214,1.8485255241394043,,,,,,,,,,,,,,,,,,,,,
1763354781154407936,6.5214080810546875,0.0246542301028966,-0.0103946831077337,0.0090828128159046,0.0816160142421722,0.0835114642977714,-0.9931589365005492,0.0008729994297027,0.004241831600666,0.0099893808364868,0.3764732002888481,-0.0536336221268739,-0.0233231547102027,0.924579552766139,-0.083608843005381,0.0819939579619169,2.371657538826848,1.8585715293884277,,,,,,,,,,,,,,,,,,,,,
1763354781164453888,6.531454086303711,0.0064986972138285,-0.009059140458703,0.0081472434103488,0.081517294049263,0.0837126448750495,-0.9931501150131226,-0.0002337247133255,-0.0066862776875495,0.0057233572006225,0.3764412042016366,-0.0536251532223024,-0.0234369817962529,0.9245902516497372,-0.0838107275989067,0.0818959498657923,2.3717292453288734,1.8686175346374512,,,,,,,,,,,,,,,,,,,,,
1763354781174500864,6.541501045227051,0.0043181013315916,-0.0003106566146016,-0.0004228083416819,0.081559769809246,0.0840243771672248,-0.9931203126907348,-0.0017410442233085,-0.0086917281150817,0.0068989992141723,0.3764271209734401,-0.0537038412064324,-0.023574398005962,0.9245879864587718,-0.0841235604905144,0.0819408758329945,2.3717684786086024,1.878664493560791,,,,,,,,,,,,,,,,,,,,,
1763354781184547072,6.551547050476074,0.0047818240709602,-0.0025645559653639,-0.0032999101094901,0.0816598236560821,0.0842650160193443,-0.9930917024612428,-0.0018563568592071,-0.0003569349646568,0.0042153596878051,0.3764392316417987,-0.0537964794923602,-0.0236664404154586,0.9245751650461176,-0.084365058840709,0.0820433036596966,2.3717503715756467,1.8887104988098145,,,,,,,,,,,,,,,,,,,,,
1763354781194593024,6.561593055725098,0.0075608319602906,0.001556419301778,0.0030783601105213,0.0817250832915306,0.0843834355473518,-0.9930762648582458,-0.0006246194243431,0.0078712031245231,0.0069465041160583,0.3764355633313475,-0.0538492663347473,-0.0237092698748233,0.9245725427650208,-0.0844839028886442,0.0821098423475952,2.3717629705595633,1.898756504058838,,,,,,,,,,,,,,,,,,,,,
1763354781204640000,6.5716400146484375,0.0037106671370565,0.0079459082335233,0.0055382335558533,0.0817270055413246,0.0844845026731491,-0.993067502975464,-0.0023050084710121,0.0065494328737258,0.0080516338348388,0.376419926915417,-0.0538689838161703,-0.0237567038983457,0.924576521905705,-0.084585326605797,0.0821124834664776,2.371799250317354,1.9088034629821777,,,,,,,,,,,,,,,,,,,,,
1763354781214685952,6.581686019897461,-0.0078447889536619,0.0157337896525859,-0.0003279112279415,0.0817817151546478,0.0847021713852882,-0.9930444359779358,-0.0058997645974159,-0.0028540268540382,0.0120111107826232,0.3764129145220662,-0.0539356598055182,-0.0238477683971458,0.9245732322641116,-0.0848037848566928,0.0821691095785836,2.371821285260543,1.9188494682312012,,,,,,,,,,,,,,,,,,,,,
1763354781224731904,6.591732025146484,-0.0133587308228015,0.0132372099906206,-0.0009589027613401,0.0819164291024208,0.0850239843130111,-0.993005871772766,-0.0060649886727333,-0.0100422948598861,0.0109654664993286,0.3764288635255903,-0.0540599615110696,-0.0239707003997801,0.9245562774378896,-0.0851267583248862,0.0823070309673434,2.3717980366893667,1.9288954734802246,,,,,,,,,,,,,,,,,,,,,
1763354781234778880,6.601778984069824,-0.0224206689745187,0.0006577689200639,0.0062571987509727,0.0820148289203643,0.0852748826146125,-0.992976188659668,-0.0005329027771949,-0.0096523314714431,0.0050764679908752,0.3764172754445005,-0.0541531756179444,-0.0240692009847641,0.9245529036883944,-0.0853785710201946,0.0824079008148781,2.3718315952292595,1.9389424324035645,,,,,,,,,,,,,,,,,,,,,
1763354781244824832,6.611824989318848,-0.039553515613079,0.0012622391805052,0.0083800926804542,0.0820348635315895,0.0853928849101066,-0.9929644465446472,0.0029413327574729,-0.0025681778788566,0.0005328059196472,0.3763607678740378,-0.054183475332407,-0.024123477309539,0.9245727271368586,-0.0854970092413307,0.0824289214268756,2.371957232689939,1.948988437652588,,,,,,,,,,,,,,,,,,,,,
1763354781254870784,6.621870994567871,-0.0541191399097442,-0.0120362546294927,0.0122275631874799,0.0819504186511039,0.085625484585762,-0.9929513335227966,0.0046737268567085,-0.0004051476716995,-0.0021811127662658,0.3762965865603578,-0.0541867484960406,-0.0242511011977465,0.9245953588688076,-0.0857304653513467,0.0823455298608432,2.372099539857217,1.9590344429016113,,,,,,,,,,,,,,,,,,,,,
1763354781264917760,6.631917953491211,-0.0661201477050781,-0.0152538865804672,0.0146149974316358,0.0817955061793327,0.0861727148294448,-0.9929168224334716,0.0042793303728103,-0.0078493505716323,0.0049712657928466,0.376215124065027,-0.0542166000871885,-0.0245390256293647,0.9246190985840544,-0.0862797206429845,0.0821934157616891,2.372284653552527,1.9690814018249512,,,,,,,,,,,,,,,,,,,,,
1763354781274963968,6.641963958740234,-0.0880571380257606,-0.0016363454051315,0.0092798862606287,0.0816801190376281,0.0870922654867172,-0.9928460717201232,6.121397018432617e-05,-0.0154217332601547,0.0108361840248107,0.3761386393243148,-0.0543357297182258,-0.0249919804382812,0.9246311478350108,-0.087202739547969,0.0820838107558206,2.3724690046224906,1.9791274070739746,,,,,,,,,,,,,,,,,,,,,
1763354781285010688,6.652010917663574,-0.1002207621932029,0.014110560528934,0.0140517391264438,0.0817201808094978,0.0881348848342895,-0.9927507638931274,-0.0093324854969978,-0.014358639717102,0.0162035226821899,0.3760624503026577,-0.0545505582373017,-0.0254727432752016,0.9246363947210008,-0.0882493866382228,0.0821317379967106,2.372659583921453,1.9891743659973145,,,,,,,,,,,,,,,,,,,,,
1763354781295056896,6.662056922912598,-0.1055758446455001,0.0178152844309806,0.0194395799189806,0.0817893519997596,0.0890304967761039,-0.9926651120185852,-0.0095084682106971,-0.0112717077136039,0.0095108151435852,0.3759602720242084,-0.0547502162247277,-0.0258813824967585,0.924654736237014,-0.0891485353578426,0.0822080033670188,2.372903423285049,1.999220371246338,,,,,,,,,,,,,,,,,,,,,
1763354781305102848,6.672102928161621,-0.1113645881414413,0.0039522987790405,0.0193405989557504,0.0817887634038925,0.0898018181324005,-0.9925957322120668,-0.00157330930233,-0.0023079216480255,0.0070610642433166,0.3758364144464174,-0.0548930896859706,-0.0262468292425491,0.9246864132762118,-0.0899229560464661,0.0822131371789474,2.373189498078887,2.0092663764953613,,,,,,,,,,,,,,,,,,,,,
1763354781315150080,6.68215012550354,-0.1115808337926864,-0.0126362666487693,0.0264669526368379,0.0817625001072883,0.0905833467841148,-0.9925268292427064,0.0053346529603004,0.0024037063121795,0.0006293058395385,0.3756987279903154,-0.055025491611596,-0.0266227267965256,0.9247237014988045,-0.0907076849025432,0.0821925388336864,2.3735045597151765,2.0193135738372803,,,,,,,,,,,,,,,,,,,,,
1763354781325196032,6.6921961307525635,-0.1109211444854736,-0.0043850266374647,0.023842230439186,0.0817828848958015,0.0915035232901573,-0.9924407601356506,0.0041240975260734,-0.0005611404776573,0.0016265511512756,0.3755483020811324,-0.0552054862757283,-0.0270550131554268,0.9247614542827468,-0.0916316949712018,0.0822200330589545,2.3738515290569047,2.0293595790863037,,,,,,,,,,,,,,,,,,,,,
1763354781335241728,6.702241897583008,-0.1066206693649292,-0.015635285526514,0.0281842462718486,0.0818167850375175,0.0924464464187622,-0.9923505783081056,0.0018929317593574,-0.0006343126296997,0.0010175704956054,0.3753842160004622,-0.0553955760307346,-0.0274962095052497,0.92480376239626,-0.0925786346486831,0.0822614074008827,2.374229107021277,2.039405345916748,,,,,,,,,,,,,,,,,,,,,
1763354781345288960,6.712289094924927,-0.0945016220211982,-0.028019580990076,0.035242598503828,0.081740103662014,0.0930935442447662,-0.9922963976860046,0.0052807703614234,0.0030673444271087,0.0014669299125671,0.375199571302581,-0.0554772565807745,-0.0278221740953787,0.9248640204761378,-0.0932285329001561,0.0821891177369642,2.37464075135933,2.049452543258667,,,,,,,,,,,,,,,,,,,,,
1763354781355334912,6.72233510017395,-0.0994247421622276,-0.0328638702630996,0.0362985432147979,0.0814815908670425,0.0935807675123214,-0.9922718405723572,0.0056003257632255,0.0066084414720535,0.0038837790489196,0.3750015871937547,-0.0554434050265735,-0.0281089418011271,0.9249376258613524,-0.0937178933813033,0.0819323663970138,2.3750718782383657,2.0594985485076904,,,,,,,,,,,,,,,,,,,,,
1763354781365381120,6.732381105422974,-0.1060178205370903,-0.0251093804836273,0.0343269146978855,0.0810523778200149,0.0941404625773429,-0.9922540187835692,0.0012382715940475,0.004736490547657,0.0086572170257568,0.3747984026104705,-0.0553435337334223,-0.0284617619138134,0.9250152147654462,-0.0942800713449531,0.0815041488159621,2.3755105383395394,2.069544553756714,,,,,,,,,,,,,,,,,,,,,
1763354781375427840,6.7424280643463135,-0.1096607595682144,-0.0210467278957366,0.031280793249607,0.0806696265935897,0.0948474109172821,-0.9922178983688354,-0.0023767799139022,-0.0045153796672821,0.0095061063766479,0.3746081245197382,-0.0552934870897938,-0.0288734414416918,0.9250825306916692,-0.0949901987260475,0.0811238976751623,2.3759255117999727,2.0795915126800537,,,,,,,,,,,,,,,,,,,,,
1763354781385474048,6.752474069595337,-0.1113653182983398,-0.030416926369071,0.0273323915898799,0.0804429501295089,0.095782846212387,-0.9921464323997498,-0.0014787167310714,-0.004382699728012,0.0074815154075622,0.3744364601637793,-0.0553598848188286,-0.0293608285208708,0.925132700900166,-0.0959299093665382,0.080902740736472,2.3763096725631425,2.089637517929077,,,,,,,,,,,,,,,,,,,,,
1763354781395520000,6.76252007484436,-0.1022533178329467,-0.0348380394279956,0.0281715504825115,0.0802888870239257,0.0967713445425033,-0.9920629858970642,0.0026121139526367,0.0009001642465591,0.0039190649986267,0.3742736032354165,-0.055470292267492,-0.0298587559743515,0.925176103246113,-0.096923026389059,0.0807552352709093,2.3766780175758693,2.0996835231781006,,,,,,,,,,,,,,,,,,,,,
1763354781405566976,6.7725670337677,-0.082360602915287,-0.0413100235164165,0.029414627701044,0.0800635665655136,0.0975208580493927,-0.9920077919960022,0.0045311599969863,0.0088786780834198,0.0046420693397521,0.3740997769854248,-0.0555017191680725,-0.0302597224669816,0.9252314926286648,-0.0976760989175423,0.0805340437522736,2.3770622370673395,2.1097304821014404,,,,,,,,,,,,,,,,,,,,,
1763354781415612928,6.782613039016724,-0.0663230419158935,-0.0294666774570941,0.0269165821373462,0.0798317044973373,0.0980810299515724,-0.9919712543487548,0.0035270527005195,0.0142389088869094,0.0039494633674621,0.3739507316204692,-0.0554949300869921,-0.030572464530109,0.9252818082299054,-0.0982389693720753,0.0803047709802797,2.377388311967555,2.119776487350464,,,,,,,,,,,,,,,,,,,,,
1763354781425659392,6.792659521102905,-0.0497996620833873,-0.0169791840016841,0.0152933038771152,0.0797566324472427,0.0985961109399795,-0.9919262528419496,0.0027323812246322,0.0183930248022079,0.0015392899513244,0.3738226777663842,-0.055553251748773,-0.0308335999552389,0.925321417591997,-0.0987565596852559,0.0802331978826386,2.3776733263092944,2.1298229694366455,,,,,,,,,,,,,,,,,,,,,
1763354781435706624,6.802706718444824,-0.0301066525280475,0.0113123767077922,0.003876865375787,0.0799197107553482,0.0990218222141265,-0.9918707013130188,-0.0064333826303482,0.0183182656764984,0.0068243145942687,0.3737645791577429,-0.0557079083609209,-0.0310043678783515,0.9253298488670394,-0.0991843616112322,0.0804010313435182,2.3778131258994457,2.1398701667785645,,,,,,,,,,,,,,,,,,,,,
1763354781445752576,6.812752723693848,-0.0090331910178065,0.0245827753096818,0.0034765917807817,0.0801938474178314,0.0992021411657333,-0.991830587387085,-0.0112546309828758,0.0211591869592666,0.0077760219573974,0.3737395001495259,-0.0558689429873523,-0.031038297334003,0.9253291361663716,-0.0993655773032189,0.0806788747881912,2.3778803431283397,2.149916172027588,,,,,,,,,,,,,,,,,,,,,
1763354781455798528,6.822798728942871,0.000839146785438,0.0336044989526271,0.0008429917506873,0.0804975926876068,0.0990522503852844,-0.9918209314346312,-0.0094374194741249,0.0176927372813224,0.0126187205314636,0.3737280066253544,-0.0559817084835912,-0.0309123827856947,0.9253311703913106,-0.0992149393276954,0.0809839097608421,2.377912292399243,2.1599621772766113,,,,,,,,,,,,,,,,,,,,,
1763354781465845504,6.832845687866211,0.0039641335606575,0.0407689027488231,0.0006541740149259,0.0808700174093246,0.0988571122288703,-0.991810142993927,-0.0078872218728065,0.0091751143336296,0.011707603931427,0.3737319495788399,-0.0561184281057473,-0.030751633123406,0.9253266287962176,-0.099018838632844,0.0813578195593385,2.377912119899664,2.170009136199951,,,,,,,,,,,,,,,,,,,,,
1763354781475891712,6.842891693115234,-0.0040549105033278,0.0401728898286819,0.0032438323833048,0.0813182145357132,0.0988177880644798,-0.9917774200439452,-0.0045970231294631,-0.0034961327910423,0.0110492706298828,0.3737189940244921,-0.0563193958168312,-0.0306501219974028,0.9253231079679411,-0.098979324241551,0.0818094020144604,2.377954456862423,2.1800551414489746,,,,,,,,,,,,,,,,,,,,,
1763354781485937664,6.852937698364258,-0.0170772019773721,0.0429047271609306,-0.0054650600068271,0.081840194761753,0.0990836545825004,-0.9917079210281372,-0.0056835860013961,-0.0064170211553573,0.0109950304031372,0.3737368703450752,-0.0566135763082036,-0.03067473698719,0.9252971257702608,-0.0992465008587622,0.0823379207681891,2.3779389980087173,2.190101146697998,,,,,,,,,,,,,,,,,,,,,
1763354781495984640,6.862984657287598,-0.0261082481592893,0.0264980532228946,-0.0112771429121494,0.0822377502918243,0.0996079519391059,-0.991622507572174,-0.0010152235627174,0.0020003244280815,0.0027614831924438,0.3737851117497155,-0.0568997484450663,-0.0308409145766204,0.9252545118290948,-0.0997734022534495,0.0827431642212233,2.377859326038938,2.200148105621338,,,,,,,,,,,,,,,,,,,,,
1763354781506030592,6.873030662536621,-0.0393151640892028,0.0187922306358814,-0.0135058537125587,0.0824397951364517,0.1003828719258308,-0.9915276169776917,0.0030094236135482,0.0042619109153747,0.0068779587745666,0.3738329454447585,-0.0571423215700223,-0.0311602396046895,0.9252095766061098,-0.1005522263824787,0.0829534298470295,2.377779669097291,2.2101941108703613,,,,,,,,,,,,,,,,,,,,,
1763354781516076544,6.8830766677856445,-0.0168964080512523,0.0190383065491914,-0.0148326400667428,0.0824270322918891,0.1010932698845863,-0.9914564490318298,0.0030374452471733,0.0015220865607261,-0.0051713585853576,0.3738993869120238,-0.0572732576394901,-0.0314887060563784,0.925163441068082,-0.101266260892798,0.082946565802353,2.3776508296133056,2.2202401161193848,,,,,,,,,,,,,,,,,,,,,
1763354781526123520,6.893123626708984,0.0137599064037203,-0.0033174655400216,-0.0094432011246681,0.0821809098124504,0.1015815287828445,-0.9914270043373108,0.005969114601612,0.007640890777111,-0.0037664771080017,0.3739837400651056,-0.0572539955888071,-0.0317565853829209,0.9251214954692462,-0.1017570425786231,0.0827024695798433,2.3774706884790344,2.2302870750427246,,,,,,,,,,,,,,,,,,,,,
1763354781536169472,6.903169631958008,0.0494140423834323,-0.018619455397129,-0.0007011089473962,0.0818315520882606,0.1016356796026229,-0.9914503693580629,0.0110181793570518,0.0206635147333145,-0.0009965300559997,0.3740287287444838,-0.0571030090176202,-0.0318445239338055,0.925109586262582,-0.1018114784481656,0.0823505502648627,2.3773624035533008,2.240333080291748,,,,,,,,,,,,,,,,,,,,,
1763354781546216448,6.913216590881348,0.0735345557332038,-0.0215934067964553,0.0019398592412471,0.0814437270164489,0.1012003794312477,-0.9915267825126648,0.0105820223689079,0.0267445668578147,0.0008651614189147,0.374043042786561,-0.0568402427360751,-0.031714102545407,0.925124526573354,-0.101373924808248,0.0819557261435021,2.3773089770603866,2.250380039215088,,,,,,,,,,,,,,,,,,,,,
1763354781556262400,6.923262596130371,0.0812361538410186,-0.0191233251243829,0.0048826523125171,0.0811614692211151,0.100336842238903,-0.9916377067565918,0.0047455132007598,0.0165759995579719,0.0018000602722167,0.3740541645750019,-0.0565453920361862,-0.0313650600316983,0.9251499142116208,-0.1005059678376524,0.0816638621358997,2.377256896476,2.2604260444641113,,,,,,,,,,,,,,,,,,,,,
1763354781566308608,6.9333086013793945,0.0807472318410873,-0.0247333087027072,0.0040361224673688,0.0808506533503532,0.0993885844945907,-0.9917585849761964,0.0022487118840217,0.0059580951929092,2.8848648071289062e-05,0.3740547993650582,-0.0562208512546223,-0.0309826637153651,0.9251823638602458,-0.099552946491207,0.0813426325735244,2.377225086020811,2.2704720497131348,,,,,,,,,,,,,,,,,,,,,
1763354781576355584,6.943355560302734,0.0717822313308715,-0.0275924764573574,0.0068942266516387,0.0805997475981712,0.0986847355961799,-0.9918493032455444,0.0040102377533912,0.00202327221632,0.0023320913314819,0.3740460507952934,-0.0559702711312545,-0.0307031881845183,0.9252104261848496,-0.0988456199327483,0.0810839215379291,2.377220768361215,2.2805190086364746,,,,,,,,,,,,,,,,,,,,,
1763354781586401536,6.953401565551758,0.0742886289954185,-0.0114314518868923,-0.0037397751584649,0.0805242583155632,0.0980962887406349,-0.9919137954711914,0.0001794770359992,0.001879297196865,0.0065164566040039,0.3740622516354305,-0.0558241358916859,-0.030442926208007,0.9252212585928123,-0.0982543023102996,0.0810030664744457,2.37717071856337,2.290565013885498,,,,,,,,,,,,,,,,,,,,,
1763354781596447488,6.963447570800781,0.0879604965448379,-0.0011447253637015,-0.0010212203487753,0.0805628225207328,0.0973892584443092,-0.9919803142547609,-0.0044672414660453,0.0076827704906463,0.0068271160125732,0.3740962925527429,-0.0557092452518276,-0.0301050981563308,0.925225534322235,-0.097543866861976,0.0810362797225508,2.377083526587965,2.3006110191345215,,,,,,,,,,,,,,,,,,,,,
1763354781606494464,6.973494529724121,0.0798482447862625,0.0011783502995967,0.0069315112195909,0.0807267427444458,0.0967956930398941,-0.9920250773429872,-0.0056840255856513,0.0119079202413558,0.0103509426116943,0.3740982299388776,-0.0556732119437556,-0.0297984198460399,0.9252368397426382,-0.0969474855963738,0.0811967914782296,2.377071974427536,2.3106579780578613,,,,,,,,,,,,,,,,,,,,,
1763354781616540416,6.9835405349731445,0.0765927955508232,0.0025544054806232,0.0066755809821188,0.0810213312506675,0.0965633615851402,-0.9920237064361572,-0.0023317635059356,0.0051669776439666,0.0029032826423645,0.3740883969862627,-0.0557661223875487,-0.0296357815778424,0.9252403776382264,-0.0967140625761754,0.0814919026609325,2.3770976177176517,2.3207039833068848,,,,,,,,,,,,,,,,,,,,,
1763354781626586368,6.993586540222168,0.0721495822072029,0.0046250130981206,0.0088125020265579,0.0813107788562774,0.0965382307767868,-0.9920024871826172,-0.0023160278797149,-0.0043446198105812,0.0028057098388671,0.3740698193694965,-0.0558956092061075,-0.0295709110489455,0.9252421767266196,-0.0966888115593137,0.0817834799396152,2.377146616341866,2.330749988555908,,,,,,,,,,,,,,,,,,,,,
1763354781636633600,7.003633737564087,0.0793198719620704,0.0134262274950742,0.0060934140346944,0.0815206468105316,0.0962451919913292,-0.9920137524604796,-0.0019613280892372,-0.0083393082022666,0.0030763745307922,0.374057825524437,-0.0559374864407357,-0.0293960973566227,0.925250095151102,-0.0963944043918414,0.0819926999467262,2.3771729204486536,2.340797185897827,,,,,,,,,,,,,,,,,,,,,
1763354781646679552,7.01367974281311,0.087914690375328,0.0233792588114738,0.0089065115898847,0.0817400887608528,0.0956300795078277,-0.9920551776885986,-0.0035693123936653,-0.0023073256015777,0.0080006122589111,0.3740500840406979,-0.0559229651386843,-0.0290695850069407,0.9252643556527198,-0.0957764423990177,0.0822090034388657,2.377182911425382,2.3508431911468506,,,,,,,,,,,,,,,,,,,,,
1763354781656725760,7.023725748062134,0.1007913425564765,0.035671878606081,0.0170009229332208,0.0821012184023857,0.0947993397712707,-0.9921050667762756,-0.0061124488711357,0.0085026621818542,0.0101867318153381,0.3740221537640869,-0.0559330047480602,-0.028617527501943,0.9252891107258966,-0.0949419085364506,0.0825664258098134,2.37723597762468,2.360889196395874,,,,,,,,,,,,,,,,,,,,,
1763354781666772480,7.033772706985474,0.105882242321968,0.047892328351736,0.0179229099303483,0.0825136974453926,0.0938667431473732,-0.9921595454216005,-0.0081576108932495,0.0101829320192337,0.0083491206169128,0.3739805301032113,-0.0559473126801116,-0.0281093568421484,0.9253205802661796,-0.0940051362735421,0.0829748063447816,2.377317319454747,2.370936155319214,,,,,,,,,,,,,,,,,,,,,
1763354781676818688,7.043818712234497,0.1049080565571785,0.0511637553572654,0.0146780237555503,0.0828837677836418,0.0930654928088188,-0.9922041893005372,-0.0058574005961418,0.0077951028943061,0.0070967674255371,0.3739492696833779,-0.0559670968774018,-0.0276695524834029,0.9253453312626626,-0.0932003616674863,0.0833414956157564,2.3773777070352367,2.3809821605682373,,,,,,,,,,,,,,,,,,,,,
1763354781686864640,7.0538647174835205,0.0920250192284584,0.045918121933937,0.0054765376262366,0.0832105502486229,0.0924477130174636,-0.9922345876693726,-0.0023389607667922,-0.0002846345305442,0.00924813747406,0.3739355310112571,-0.0560020055470881,-0.0273220614763794,0.9253590533160656,-0.0925799075880988,0.0836660011949532,2.3774026129864985,2.3910281658172607,,,,,,,,,,,,,,,,,,,,,
1763354781696911616,7.06391167640686,0.0965261608362197,0.0611342266201972,0.0089028719812631,0.0836349576711654,0.091711051762104,-0.9922672510147096,-0.0012985318899154,-0.006200797855854,0.0070987939834594,0.3739451163057449,-0.0560605937288822,-0.0268996174722424,0.925364062195871,-0.0918401004524914,0.0840879737203043,2.3773770251269855,2.4010751247406006,,,,,,,,,,,,,,,,,,,,,
1763354781706957568,7.073957681655884,0.0842480510473251,0.0662348493933677,0.0127522936090826,0.0841864049434661,0.0908403545618057,-0.9923006892204284,-0.0047644078731536,0.0009565204381942,0.0047060847282409,0.3739382190040637,-0.0561525478330999,-0.0263920788822785,0.9253758359297825,-0.0909657530997867,0.0846369363982696,2.3773867827730095,2.411121129989624,,,,,,,,,,,,,,,,,,,,,
1763354781717004544,7.084004640579224,0.0806378722190857,0.0600994601845741,0.0153328953310847,0.0847463682293891,0.0899382755160331,-0.9923352003097534,-0.0056295469403266,0.0062226131558418,0.0126599073410034,0.3739030144864383,-0.0562417629285198,-0.0258700991310166,0.9253993742469758,-0.0900599701720533,0.0851942341371783,2.377456574173961,2.421168088912964,,,,,,,,,,,,,,,,,,,,,
1763354781727050496,7.094050645828247,0.051179613918066,0.0443433634936809,0.0157285537570714,0.0851415991783142,0.0893446281552314,-0.9923549890518188,-0.0011572167277336,-0.0043226554989814,0.0125423669815063,0.3738512243344559,-0.0563121647373342,-0.0255233264434545,0.9254257080618924,-0.0894639223978561,0.0855879185457607,2.3775648406634655,2.4312140941619873,,,,,,,,,,,,,,,,,,,,,
1763354781737096448,7.1040966510772705,0.0226457100361585,0.0372058264911174,0.0121615156531333,0.0853549391031265,0.0893236175179481,-0.9923385381698608,0.0012234151363372,-0.0207964032888412,0.0110458731651306,0.3738137376295188,-0.0564065580160707,-0.0254758301537332,0.9254364623237642,-0.0894428265165535,0.0858027455555719,2.377651352756625,2.4412600994110107,,,,,,,,,,,,,,,,,,,,,
1763354781747143424,7.11414361000061,-0.0024175662547349,0.0292349848896265,0.023564638569951,0.0854341089725494,0.089558407664299,-0.9923105835914612,0.0005644261837005,-0.0316512957215309,0.0045176148414611,0.3737521155321618,-0.0564861535443138,-0.025573814745095,0.9254537433878434,-0.0896785584279838,0.0858843490114629,2.3777925601988343,2.4513070583343506,,,,,,,,,,,,,,,,,,,,,
1763354781757189632,7.124189615249634,-0.0169096905738115,0.0312315560877323,0.022461824119091,0.0855687856674194,0.0899200960993766,-0.9922662973403932,0.003283143043518,-0.0248261019587516,0.0047022104263305,0.3736533434647749,-0.0566145615210106,-0.0257226345853429,0.9254816970835062,-0.0900417151337255,0.0860228894083369,2.378019002200561,2.461353063583374,,,,,,,,,,,,,,,,,,,,,
1763354781767235584,7.134235620498657,-0.0121590765193104,0.0216965749859809,0.0266836453229188,0.0857561603188514,0.0901113599538803,-0.9922327399253844,0.001600407063961,-0.0082021802663803,0.0010218024253845,0.3735483208996765,-0.0567351180751797,-0.0257828036040762,0.925515017275102,-0.0902337593784726,0.0862132289995807,2.3782560169681273,2.4713990688323975,,,,,,,,,,,,,,,,,,,,,
1763354781777282560,7.144282579421997,-0.0093315988779068,0.016971593722701,0.0364137701690197,0.0859275981783866,0.0901021957397461,-0.9922187328338624,0.0049079731106758,0.0032205581665039,-0.0019981861114501,0.373402034505681,-0.0568092097850662,-0.0257553891873917,0.9255702521829048,-0.0902245550595032,0.0863859384447374,2.3785766775678376,2.4814460277557373,,,,,,,,,,,,,,,,,,,,,
1763354781787328512,7.1543285846710205,-0.0250068642199039,0.0026796406600624,0.0464004427194595,0.0859353467822074,0.0902757346630096,-0.9922022819519044,0.0083792209625244,0.0036268457770347,-0.0090641379356384,0.3732025513475633,-0.05684003990014,-0.0258468250868558,0.9256463301779636,-0.0903988054276195,0.0863951125392394,2.379012477364259,2.4914920330047607,,,,,,,,,,,,,,,,,,,,,
1763354781797374464,7.164374589920044,-0.0485878214240074,-0.0166764799505472,0.0443980135023593,0.085785374045372,0.0907590761780738,-0.9921711683273317,0.0109400823712348,-0.0067747086286544,-0.0005350708961486,0.3729821838165763,-0.0568552211888447,-0.0261130585510536,0.9257266520862634,-0.090884142062224,0.0862477783822671,2.379496422924219,2.501538038253784,,,,,,,,,,,,,,,,,,,,,
1763354781807421440,7.174421548843384,-0.0877593904733657,-0.0336179807782173,0.0418293997645378,0.0855395793914794,0.0912908613681793,-0.9921436309814452,0.0087749883532524,-0.0196966230869293,0.0091419219970703,0.3727594636565893,-0.056834673773859,-0.0264198847507701,0.9258089957060252,-0.0914181402074266,0.0860042540200327,2.3799841047451045,2.511584997177124,,,,,,,,,,,,,,,,,,,,,
1763354781817467392,7.184467554092407,-0.1148077845573425,-0.0238098241388797,0.0429383367300033,0.0853200033307075,0.0917847454547882,-0.992116928100586,0.0028452724218368,-0.0267670527100563,0.0087490677833557,0.3725240728698923,-0.0568187115273466,-0.0267049668665323,0.9258964798436016,-0.0919141088234612,0.0857868617153552,2.3804984550978565,2.5216310024261475,,,,,,,,,,,,,,,,,,,,,
1763354781827513344,7.194513559341431,-0.1357218325138092,-0.0215214043855667,0.0463990271091461,0.0851499661803245,0.0922263264656066,-0.99209064245224,-0.001211367547512,-0.0242636799812316,0.0043129324913024,0.3722742620303996,-0.0568154295091479,-0.0269573599997247,0.9259898822537812,-0.0923575738963878,0.085618987821494,2.381044110422435,2.531677007675171,,,,,,,,,,,,,,,,,,,,,
1763354781837560576,7.20456075668335,-0.1296327859163284,-0.027890620753169,0.0491697788238525,0.0850447043776512,0.0929262265563011,-0.9920343160629272,0.0001298561692237,-0.0111696347594261,0.0079339742660522,0.3720002467329901,-0.0568901728248841,-0.0273192641579101,0.9260848186014008,-0.0930604913533007,0.0855184931709278,2.3816500755185364,2.54172420501709,,,,,,,,,,,,,,,,,,,,,
1763354781847606528,7.214606523513794,-0.1055026054382324,-0.0318065956234931,0.0504071712493896,0.0848381072282791,0.0938371792435646,-0.9919662475585938,0.0037849247455596,0.0015149936079978,0.0050583481788635,0.3717262598080498,-0.0569571835276226,-0.0277982740502425,0.9261764623039196,-0.0939754369493661,0.0853175789425331,2.382257812722329,2.551769971847534,,,,,,,,,,,,,,,,,,,,,
1763354781857653504,7.224653720855713,-0.0799325332045555,-0.0319650545716285,0.0532676726579666,0.0846945866942405,0.0947146713733673,-0.9918951392173768,0.0045693293213844,0.0121884047985076,-0.0025048851966857,0.3714468374073695,-0.0570469118159665,-0.0282503606091236,0.9262692503745762,-0.094856857536281,0.0851800220975164,2.382877786650794,2.561817169189453,,,,,,,,,,,,,,,,,,,,,
1763354781867699712,7.234699726104736,-0.041083637624979,-0.0356788672506809,0.0604947842657566,0.0846144929528236,0.0952524840831756,-0.99185049533844,0.0052445158362388,0.0237813293933868,-0.000245451927185,0.3711620106812565,-0.0571019529374203,-0.0285330124586949,0.9263713985328108,-0.0953971141290893,0.085103670523637,2.38350325345248,2.5718631744384766,,,,,,,,,,,,,,,,,,,,,
1763354781877745664,7.24474573135376,-0.0135872960090637,-0.0366615764796733,0.0676134079694747,0.0845929458737373,0.0951984673738479,-0.9918574690818788,0.0010546296834945,0.0248424187302589,0.0080318450927734,0.3708463084734518,-0.0570720227561046,-0.028531347029934,0.9264997740851084,-0.0953428539802551,0.0850815022171337,2.384182937962958,2.5819091796875,,,,,,,,,,,,,,,,,,,,,
1763354781887792640,7.2547926902771,-0.0104101449251174,-0.0421745851635932,0.0625045821070671,0.0845015719532966,0.0947579815983772,-0.9919074773788452,0.0012070462107658,0.0162191912531852,0.0031379461288452,0.3705135108864475,-0.0569364681056889,-0.0283638507457725,0.9266464259184624,-0.0949003658031579,0.0849857823541067,2.384887948529942,2.59195613861084,,,,,,,,,,,,,,,,,,,,,
1763354781897838592,7.264838695526123,-0.0025623422116041,-0.0511086918413639,0.0539851263165473,0.084204189479351,0.0941345542669296,-0.9919921159744264,0.0038237646222114,0.0068023353815078,0.0002928972244262,0.3702318110052592,-0.0566721649840154,-0.0281462579603865,0.9267818350800466,-0.0942741410725645,0.0846809333557964,2.3854717725688146,2.6020021438598633,,,,,,,,,,,,,,,,,,,,,
1763354781907884544,7.274884700775147,-0.009745686315,-0.0590491667389869,0.0530088171362876,0.083705797791481,0.0935777053236961,-0.992086946964264,0.0068551152944564,0.0019423216581344,0.0026612877845764,0.3699694450805613,-0.0563272655995363,-0.0279956250563021,0.926912110100797,-0.0937148165032418,0.0841740833412876,2.386009221386154,2.6120481491088876,,,,,,,,,,,,,,,,,,,,,
1763354781917931520,7.284931659698486,-0.0119547788053751,-0.0610713064670562,0.0466582402586936,0.0831996947526931,0.0933871567249298,-0.9921475052833556,0.0079257935285568,0.004375897347927,0.0043392777442932,0.3697189586872443,-0.0560478038002814,-0.0280160195310416,0.927028342747347,-0.0935234358790683,0.0836624514307556,2.3865296627120967,2.6220951080322266,,,,,,,,,,,,,,,,,,,,,
1763354781927977472,7.29497766494751,-0.0275072399526834,-0.0539597384631633,0.0358513072133064,0.0827953293919563,0.0935827121138572,-0.9921628832817078,0.002165600657463,0.0054163038730621,0.0063230991363525,0.369516490701164,-0.05588950444992,-0.0281942471694053,0.927113326251746,-0.0937198480518835,0.0832564288000847,2.386958916336449,2.63214111328125,,,,,,,,,,,,,,,,,,,,,
1763354781938023680,7.305023670196533,-0.061656154692173,-0.0413336902856826,0.0441249497234821,0.0824910625815391,0.0942548736929893,-0.992124617099762,-0.0057546123862266,-0.0003065168857574,0.0101605057716369,0.3693091243138117,-0.0558668431225964,-0.0285760531895164,0.9271855422833486,-0.0943949972358051,0.0829550587820151,2.3874123368147018,2.6421871185302734,,,,,,,,,,,,,,,,,,,,,
1763354781948070400,7.315070629119873,-0.0981309115886688,-0.0180197451263666,0.0284593515098094,0.0823890566825866,0.0956132262945175,-0.9920030832290648,-0.0087959244847297,-0.0152604505419731,0.0149828791618347,0.3691062196193125,-0.0560668531500884,-0.0292396541221874,0.9272335407213022,-0.0957595079670244,0.0828630492651004,2.387877987142185,2.6522340774536133,,,,,,,,,,,,,,,,,,,,,
1763354781958116608,7.325116634368896,-0.1097396314144134,-0.0147693566977977,0.0250816643238067,0.0823693573474884,0.0971825122833252,-0.9918522238731384,-0.0103326216340065,-0.0249779224395751,0.0096439719200134,0.3689581356480161,-0.0563462572113331,-0.0299830565564161,0.9272518821645084,-0.0973361374913132,0.0828558737998672,2.388232577655458,2.662280082702636,,,,,,,,,,,,,,,,,,,,,
1763354781968162560,7.33516263961792,-0.1223230585455894,-0.0012966920621693,0.0352411828935146,0.0824068039655685,0.0986313000321388,-0.9917060732841492,-0.0089204832911491,-0.0147079676389694,0.0145637989044189,0.3687723362279729,-0.0566284362483637,-0.0306622102989335,0.9272863485935714,-0.0987919200646868,0.0829055226682182,2.3886669951007407,2.67232608795166,,,,,,,,,,,,,,,,,,,,,
1763354781978209536,7.34520959854126,-0.0815663114190101,0.0117461392655968,0.0366915389895439,0.0826253592967987,0.099737249314785,-0.9915772676467896,-0.0084676519036293,0.0015658438205718,0.0137025713920593,0.3685708775478942,-0.0569304313966998,-0.0311492873170504,0.9273318088121416,-0.09990334898681,0.0831351407355734,2.389133677762595,2.682373046875,,,,,,,,,,,,,,,,,,,,,
1763354781988255488,7.355255603790283,-0.0537092499434948,-0.0044036689214408,0.0507178753614425,0.0828927606344223,0.100286528468132,-0.9914996027946472,-0.0027383416891098,0.0051669627428054,0.0013720393180847,0.3683445891465273,-0.0571502987968544,-0.0313696745685777,0.9274007505758952,-0.1004553949389338,0.0834094548206288,2.389642999585791,2.6924190521240234,,,,,,,,,,,,,,,,,,,,,
1763354781998302464,7.365302562713623,-0.0377324149012565,-0.0163719151169061,0.0604386776685714,0.0830170139670372,0.1006543561816215,-0.9914519190788268,0.0041564404964447,0.0108110979199409,0.0113188624382019,0.3680585397529371,-0.05726730405625,-0.0315357529143901,0.9275015030389172,-0.1008250965429743,0.0835379012530459,2.3902723841236293,2.7024660110473633,,,,,,,,,,,,,,,,,,,,,
1763354782008348416,7.3753485679626465,-0.0316899009048938,-0.0218951106071472,0.0507936850190162,0.0829361379146575,0.1009135618805885,-0.9914323091506958,0.0057937204837799,0.0130695924162864,-0.0054854154586791,0.3677747777469008,-0.0572681960205118,-0.0316889888962703,0.9276087418836274,-0.1010856283867114,0.0834585339751787,2.3908871511040837,2.7125120162963867,,,,,,,,,,,,,,,,,,,,,
1763354782018394368,7.38539457321167,-0.0139876026660203,-0.0259497761726379,0.0341816842555999,0.0826359316706657,0.1009823232889175,-0.9914503693580629,0.0075892806053161,0.0141147151589393,-0.0140885114669799,0.3675722420202025,-0.057133810508187,-0.0317888926430056,0.9276937791586268,-0.1011547406118022,0.0831563234189426,2.391314767204743,2.72255802154541,,,,,,,,,,,,,,,,,,,,,
1763354782028441344,7.39544153213501,0.0081911701709032,-0.0480688922107219,0.0178367123007774,0.0821188390254974,0.1005633845925331,-0.9915359020233154,0.0085793957114219,0.0174633413553237,-0.0029708743095397,0.3674428939412484,-0.0568096920388051,-0.0316969024723466,0.9277681427745788,-0.1007336635188674,0.0826312529334026,2.391566699672309,2.73260498046875,,,,,,,,,,,,,,,,,,,,,
1763354782038487552,7.405487537384033,0.0189159847795963,-0.0477439872920513,0.0027674813754856,0.081432320177555,0.0997745990753173,-0.9916722178459167,0.0072517618536949,0.0172603130340576,0.0109440684318542,0.3673889673836025,-0.0563401581716552,-0.0314590668886844,0.9278262038132236,-0.0999408864857149,0.0819323383477379,2.391642138352697,2.7426509857177734,,,,,,,,,,,,,,,,,,,,,
1763354782048533504,7.415533542633057,0.0079352054744958,-0.0373520292341709,-0.0016870996914803,0.0808609575033187,0.0992845222353935,-0.9917681813240052,-0.0006607621908187,0.014546051621437,0.0073626637458801,0.3673993703529034,-0.0559822828142306,-0.031335308149913,0.9278480346630884,-0.0994483617001067,0.0813521720962752,2.391589828867412,2.752696990966797,,,,,,,,,,,,,,,,,,,,,
1763354782058580736,7.425580739974976,-0.0181174334138631,-0.0267760884016752,0.0031121829524636,0.0803909972310066,0.0994523987174034,-0.9917895197868348,-0.0046005994081497,0.0039564073085784,0.0072162151336669,0.367380076463296,-0.0557933067817807,-0.0315013114216074,0.9278613241238606,-0.099617073302642,0.0808796836509138,2.39161873656458,2.762744188308716,,,,,,,,,,,,,,,,,,,,,
1763354782068626688,7.435626745223999,-0.0382170416414737,-0.030241722241044,-0.003229513997212,0.0801099687814712,0.0998622328042984,-0.9917711019515992,-0.0044568926095962,-0.0218745619058609,0.0142930746078491,0.3673801761167056,-0.0557383080255714,-0.0317441045431614,0.92785629969942,-0.100028961677943,0.0805996690400796,2.39161749211628,2.7727901935577393,,,,,,,,,,,,,,,,,,,,,
1763354782078672640,7.4456727504730225,-0.0456182323396205,-0.0298041645437479,-0.0021085895132273,0.0799792781472206,0.1005962491035461,-0.991707444190979,-0.0062488168478012,-0.0331066325306892,0.0163657069206237,0.3673718008788124,-0.0558136187131624,-0.0321108120203742,0.9278424867634316,-0.1007666936389972,0.0804738874633671,2.391646396750482,2.7828361988067627,,,,,,,,,,,,,,,,,,,,,
1763354782088719616,7.455719709396362,-0.0551591739058494,-0.0328455977141857,0.0129700507968664,0.0798694416880607,0.1013923734426498,-0.991635262966156,-0.0029498860239982,-0.0171485915780067,0.006161630153656,0.367328854298537,-0.0559090315532606,-0.032504723240458,0.9278401130439756,-0.1015669077412974,0.0803696707585231,2.391751771150479,2.7928831577301025,,,,,,,,,,,,,,,,,,,,,
1763354782098765568,7.465765714645386,-0.0358714945614337,-0.0261978134512901,0.0270608384162187,0.0797852724790573,0.1021314933896064,-0.9915661811828612,0.0001402646303176,0.002284400165081,0.0042462348937988,0.3672072832346931,-0.0560030337691908,-0.0328721038983505,0.9278695791502474,-0.1023098857248491,0.0802909082522779,2.392025915490766,2.802929162979126,,,,,,,,,,,,,,,,,,,,,
1763354782108811520,7.475811719894409,-0.0224587526172399,-0.0191124733537435,0.033372439444065,0.0798442661762237,0.1027258709073066,-0.9915000200271606,0.0002796351909637,0.0060998126864433,-0.0010231733322143,0.3670563458384677,-0.056135871920536,-0.033147459920043,0.9279114711853182,-0.1029074069358218,0.0803553618995681,2.392365485252104,2.8129751682281494,,,,,,,,,,,,,,,,,,,,,
1763354782118858496,7.485858678817749,-0.0101283164694905,-0.0112412348389625,0.0330880135297775,0.0799330025911331,0.1032058000564575,-0.9914430379867554,-0.0056532174348831,0.0107926204800605,0.0012086629867553,0.3668871634435554,-0.0562605804324609,-0.033365136381927,0.927963054020164,-0.103389896032194,0.0804488811155828,2.3927431639097043,2.8230221271514893,,,,,,,,,,,,,,,,,,,,,
1763354782128904704,7.4959046840667725,-0.0224631130695343,-0.0204127952456474,0.0415068864822387,0.0798390358686447,0.1035874783992767,-0.991410791873932,-0.0024159476161003,0.0148207247257232,-0.0014480948448181,0.3667096365005133,-0.0562812540659847,-0.0335711608715353,0.9280245728278836,-0.1037736364533546,0.0803573204072606,2.3931301591182725,2.8330681324005127,,,,,,,,,,,,,,,,,,,,,
1763354782138951424,7.505951642990112,-0.0433279164135456,-0.0163980796933174,0.0345674902200698,0.0796124711632728,0.1039018332958221,-0.9913961291313172,0.0031512007117271,0.0021467506885528,0.0009023547172546,0.3665101166811966,-0.0562265610807766,-0.0337715059923904,0.9280993289540704,-0.1040896920300534,0.0801314399578494,2.3935579619180563,2.8431150913238525,,,,,,,,,,,,,,,,,,,,,
1763354782148997632,7.515997648239136,-0.0597351528704166,-0.0180854275822639,0.0113704670220613,0.0793946236371994,0.1038561910390853,-0.9914183616638184,0.0023009330034255,-0.0119830220937728,-0.0026917457580566,0.3663881119878098,-0.0561118010390911,-0.0337976393771084,0.928153511235644,-0.1040438017422646,0.0799113211882599,2.393811990068338,2.853161096572876,,,,,,,,,,,,,,,,,,,,,
1763354782159043584,7.526043653488159,-0.0638526603579521,-0.0166678242385387,0.0128762181848287,0.0791322961449623,0.1036604270339012,-0.991459846496582,-0.0026857703924179,-0.0054090842604637,0.009892463684082,0.3663147077584626,-0.0559501257929892,-0.0337589661252163,0.9281937238894388,-0.1038469793189403,0.0796450902743924,2.393956773574737,2.8632071018218994,,,,,,,,,,,,,,,,,,,,,
1763354782169090560,7.536090612411499,-0.0636280626058578,-0.0105493124574422,0.0189821366220712,0.0789768323302269,0.103861004114151,-0.9914512634277344,-0.0018283873796463,0.0055597722530364,0.0086021423339843,0.3662100602939989,-0.0559108928720423,-0.0338873797108363,0.9282326044562476,-0.1040486432742394,0.0794899571244462,2.3941803251008715,2.8732540607452393,,,,,,,,,,,,,,,,,,,,,
1763354782179136512,7.546136617660523,-0.0377618409693241,-0.0062019689939916,0.0158489290624856,0.0789392367005348,0.1043938770890235,-0.991398274898529,-0.0045678988099098,0.0034399852156639,0.013309895992279,0.3661066797539427,-0.0559884803904228,-0.0341490637915461,0.9282591500768018,-0.1045844266477542,0.0794565084159715,2.394412251437537,2.8833000659942636,,,,,,,,,,,,,,,,,,,,,
1763354782189182464,7.556182622909546,-0.0205844528973102,-0.0142617579549551,0.0190276782959699,0.0788908824324607,0.1047580987215042,-0.9913637042045592,-0.0051298961043357,0.0023586004972457,0.0062410235404968,0.3660173960145682,-0.0560301994939093,-0.0343332279508293,0.9282850856229188,-0.1049506619021515,0.0794107953978184,2.3946100375750334,2.893346071243286,,,,,,,,,,,,,,,,,,,,,
1763354782199229440,7.566229581832886,0.0045565865002572,-0.0259951129555702,0.0363613925874233,0.0785989165306091,0.1050468236207962,-0.9913563132286072,0.0020742937922477,0.0159248486161232,-0.0021281242370605,0.3658865230302798,-0.055942435264262,-0.0345293916262341,0.928334576038188,-0.105240983950438,0.0791187196121986,2.394886461618691,2.903393030166626,,,,,,,,,,,,,,,,,,,,,
1763354782209275392,7.576275587081909,0.020139442756772,-0.0292493999004364,0.0463929921388626,0.0783268809318542,0.1051708906888961,-0.9913647174835204,0.0055506825447082,0.0185626372694969,0.001267671585083,0.3656869540977812,-0.0558308162631302,-0.0346491875020273,0.9284155037312172,-0.1053657405072024,0.0788453558299525,2.3953086447619016,2.9134390354156494,,,,,,,,,,,,,,,,,,,,,
1763354782219321600,7.586321592330933,0.0140181668102741,-0.0236221365630626,0.0369520857930183,0.0782143026590347,0.104958489537239,-0.9913961291313172,0.0007346719503402,0.0088568180799484,0.0071126818656921,0.3654830755600803,-0.055731182795102,-0.0345829756658291,0.9285042922276654,-0.1051521612762499,0.0787300165686724,2.3957396134654445,2.923485040664673,,,,,,,,,,,,,,,,,,,,,
1763354782229368576,7.596368551254272,-0.0007001268677413,-0.0308453626930713,0.0409551709890365,0.0780735239386558,0.1045957505702972,-0.991445541381836,-0.0015659481287002,0.0022462904453277,0.0025386810302734,0.3652929198202091,-0.0555910606127765,-0.0344509108383196,0.9285923667604724,-0.1047874100712901,0.0785849906557931,2.396136813032042,2.933531999588012,,,,,,,,,,,,,,,,,,,,,
1763354782239414528,7.606414556503296,-0.0246552601456642,-0.0268021523952484,0.0440598838031291,0.0778111889958381,0.1045585945248603,-0.9914700984954834,-0.0012731030583381,-0.0086571052670478,0.0084836483001708,0.365083285285622,-0.0554537098924186,-0.0344941471673812,0.928681422880912,-0.1047500503831367,0.0783200873958148,2.396577786647802,2.943578004837036,,,,,,,,,,,,,,,,,,,,,
1763354782249461760,7.616461753845215,-0.0655652806162834,-0.0132989920675754,0.0399170704185962,0.0776420384645462,0.1050847470760345,-0.991427719593048,-0.0042472630739212,-0.0167363584041595,0.0110962986946105,0.364869429089209,-0.0554640143741428,-0.0347834276309269,0.9287540637980204,-0.105279118534625,0.0781538517754212,2.397041985627264,2.953625202178955,,,,,,,,,,,,,,,,,,,,,
1763354782259507712,7.626507759094238,-0.0908642411231994,0.0055306209251284,0.0302175693213939,0.077609583735466,0.1059361919760704,-0.99133962392807,-0.0088840052485466,-0.0193730890750885,0.0124273300170898,0.3646790505622282,-0.0555992025001675,-0.0351981612236635,0.9288051167762564,-0.1061353450548519,0.078128227934648,2.3974667557816223,2.9636712074279785,,,,,,,,,,,,,,,,,,,,,
1763354782269553408,7.636553525924683,-0.1002651676535606,0.00507119204849,0.031242087483406,0.0776334777474403,0.1068923324346542,-0.9912351369857788,-0.0104948058724403,-0.0136153548955917,0.0055783987045288,0.36452134918448,-0.0557812212943689,-0.0356495802686336,0.9288389529139536,-0.1070969416086675,0.0781603889010242,2.3978252655157446,2.973716974258423,,,,,,,,,,,,,,,,,,,,,
1763354782279600640,7.646600723266602,-0.1304835230112075,0.003821104299277,0.0355335064232349,0.0777831003069877,0.108350932598114,-0.9910650253295898,-0.0038542672991752,-0.000440776348114,0.0068426132202148,0.3643250158575789,-0.0561133599533315,-0.0363150475614669,0.9288702250322006,-0.1085640675237442,0.0783237982740165,2.398280969879234,2.983764171600342,,,,,,,,,,,,,,,,,,,,,
1763354782289646592,7.656646728515625,-0.1460125744342804,-0.0020185080356895,0.0378573797643184,0.0779837667942047,0.1100692525506019,-0.990859866142273,0.0006752908229827,0.002021811902523,0.0047758817672729,0.3641091884117985,-0.0565164363277367,-0.0370938596456777,0.9288996557903748,-0.1102927275269491,0.07854122334042,2.3987852590692285,2.9938101768493652,,,,,,,,,,,,,,,,,,,,,
1763354782299692544,7.666692733764648,-0.1727911978960037,0.0009613023139536,0.0432707890868186,0.0780508890748024,0.111713208258152,-0.9906705617904664,-0.000429444015026,-0.0182989090681076,0.006173551082611,0.363869416036586,-0.0568420562735824,-0.0378640368148016,0.9289426476223,-0.1119468840733554,0.0786235072180397,2.3993340153134595,3.0038561820983887,,,,,,,,,,,,,,,,,,,,,
1763354782309739520,7.676739692687988,-0.166506677865982,0.0136834885925054,0.0255944989621639,0.0781236663460731,0.1132976189255714,-0.990484893321991,-0.0028368011116981,-0.0235759392380714,0.0053164362907409,0.3636571672222618,-0.0571601795105111,-0.038603914368703,0.9289757715116392,-0.1135414190959679,0.0787112042956284,2.3998223216303805,3.0139031410217285,,,,,,,,,,,,,,,,,,,,,
1763354782319785472,7.686785697937012,-0.1244630813598632,0.0258615911006927,0.0291444938629865,0.078342780470848,0.1144015863537788,-0.9903407096862792,-0.0067332759499549,-0.0051486566662788,0.0066065788269042,0.3634932077407222,-0.0574598757934373,-0.039089856235279,0.9290010656865056,-0.1146526092698215,0.0789424975820506,2.400204012673612,3.023949146270752,,,,,,,,,,,,,,,,,,,,,
1763354782329831680,7.696831703186035,-0.0767960250377655,0.039841391146183,0.0508727803826332,0.078632466495037,0.1147849336266517,-0.9902733564376832,-0.0092202425003051,0.0174629837274551,0.0080499053001403,0.3632837094866072,-0.0576574907688722,-0.0392291654556791,0.9290648894188804,-0.1150385007819218,0.0792385508564323,2.4006741386225587,3.0339951515197754,,,,,,,,,,,,,,,,,,,,,
1763354782339878656,7.706878662109375,-0.0527817718684673,0.0391385853290557,0.0656048581004142,0.0789035186171531,0.114746868610382,-0.9902562499046326,-0.0047152861952781,0.0305015444755554,0.00330251455307,0.3629993900866942,-0.0577653971896401,-0.0391796705115844,0.9291714118060296,-0.1150001802193235,0.0795119146163767,2.401297050261938,3.0440421104431152,,,,,,,,,,,,,,,,,,,,,
1763354782349924608,7.716924667358398,-0.0682522729039192,0.0238090939819812,0.055213376879692,0.0790320336818695,0.1148173734545707,-0.990237832069397,0.003060258924961,0.0250751972198486,0.0011173486709594,0.362710899462472,-0.0578264243060175,-0.0392071806382979,0.929279092949134,-0.1150711571721354,0.0796423467887875,2.401924688698563,3.0540881156921387,,,,,,,,,,,,,,,,,,,,,
1763354782359970560,7.726970672607422,-0.0929589495062828,0.0212527252733707,0.0414347127079963,0.079196386039257,0.1154270321130752,-0.9901537895202636,0.0018583014607429,-0.0028171688318252,0.0128283500671386,0.3624661352642745,-0.0580054265543941,-0.0394775224814087,0.9293519970668508,-0.1156848967529468,0.0798140143421395,2.4024694827081103,3.064134120941162,,,,,,,,,,,,,,,,,,,,,
1763354782370017536,7.737017631530762,-0.1209288612008094,0.0245340727269649,0.02671480178833,0.0794591307640075,0.1164144128561019,-0.9900171160697936,-0.0004949048161506,-0.0280660316348075,0.0120813846588134,0.3622861105817397,-0.0583027567197093,-0.0399026346581095,0.9293854784512988,-0.1166789804950182,0.0800886831221498,2.402886107151662,3.074181079864502,,,,,,,,,,,,,,,,,,,,,
1763354782380063488,7.747063636779785,-0.1139857396483421,0.0205619670450687,0.0190393067896366,0.0796872675418853,0.1170710697770118,-0.9899213910102844,-0.0011502802371978,-0.0211085453629493,0.0026167035102844,0.3621576623340835,-0.0585250779510693,-0.0401762824481872,0.9294098155545818,-0.1173401585329388,0.0803253781242028,2.403184343246364,3.0842270851135254,,,,,,,,,,,,,,,,,,,,,
1763354782390110464,7.757110595703125,-0.0710014849901199,0.0131077468395233,0.0086515583097934,0.0797496661543846,0.1173876672983169,-0.9898788332939148,0.0046314299106597,0.009504422545433,-0.0024154782295227,0.3620686454894672,-0.0586087741248105,-0.0403185934592817,0.9294330797332384,-0.1176589511965494,0.0803914483930854,2.4033843612092487,3.0942740440368652,,,,,,,,,,,,,,,,,,,,,
