time,seconds_elapsed,rotationRateX,rotationRateY,rotationRateZ,gravityX,gravityY,gravityZ,accelerationX,accelerationY,accelerationZ,quaternionW,quaternionX,quaternionY,quaternionZ,pitch,roll,yaw
1763354779295836416,4.66283655166626,-0.1424027681350708,0.07766683399677277,-0.0034767440520226955,0.05023108050227165,-0.21919779479503632,-0.9743865728378296,-0.008376222103834152,0.044118449091911316,0.00636899471282959,0.401073991422395,0.021400594861227296,0.11112486134769983,0.9090285772174983,0.2209921920634086,0.051505895483533404,2.3048338719528605
1763354779305883392,4.6728835105896,-0.16105394065380096,0.09816332161426544,-0.022088777273893356,0.05113169550895691,-0.21773061156272888,-0.9746686220169067,-0.012084446847438812,0.03236684203147888,0.013563275337219238,0.40111037812800576,0.0206873624180749,0.11062422482457906,0.9090901350503409,0.21948869619272615,0.05241254740829063,2.3047561713896925
1763354779315929344,4.682929515838623,-0.20385152101516724,0.11589627712965012,-0.028285864740610123,0.05224945768713951,-0.21592816710472107,-0.9750102758407593,-0.016238711774349213,0.01071271300315857,0.010898947715759277,0.4011858986826444,0.019809867765603638,0.1100110609523514,0.909150774472494,0.2176423168789401,0.05353741532239246,2.3045923973733276
1763354779325975296,4.6929755210876465,-0.22333839535713196,0.10924369841814041,-0.037635158747434616,0.053435202687978745,-0.21379709243774414,-0.9754155278205872,-0.012541648000478745,-0.008019909262657166,0.016599059104919434,0.4013030567159834,0.018838359330236712,0.10925815848247561,0.9092104066717339,0.2154602834780228,0.054727283706406754,2.3043553384150366
1763354779336022272,4.703022480010986,-0.22707927227020264,0.08133423328399658,-0.03646310046315193,0.0545024499297142,-0.2115483433008194,-0.9758467078208923,-0.004804573953151703,-0.014296993613243103,0.005769193172454834,0.40144452108437856,0.01790000702161386,0.1084261945513542,0.9092665339186776,0.2131588828238574,0.05579347993262099,2.3040901296138507
1763354779346068480,4.71306848526001,-0.19447791576385498,0.035758499056100845,-0.030397750437259674,0.055152278393507004,-0.2094298154115677,-0.9762670397758484,0.009758610278367996,-0.003262430429458618,-0.004384756088256836,0.4015866214374531,0.017180459398883276,0.10756997517504649,0.9093193695317549,0.21099180110674873,0.056433038410687815,2.3038649107537674
1763354779356114432,4.723114490509033,-0.15689262747764587,0.0030228220857679844,-0.01562919281423092,0.055072903633117676,-0.20633403956890106,-0.9769304990768433,0.022121310234069824,0.020863473415374756,-0.011564314365386963,0.40173575276540324,0.016594654706255395,0.10611011764502822,0.9094359402278814,0.20782689089448808,0.056313806489873136,2.3037880415948946
1763354779366161408,4.733161449432373,-0.1168661117553711,-0.03450431302189827,-0.010644020512700081,0.05466132611036301,-0.20399072766304016,-0.9774456024169922,0.02451654151082039,0.04169824719429016,-0.010683059692382812,0.4018399026621208,0.016311651493489898,0.10493389420850985,0.909531562882648,0.20543264072539066,0.05586444114554507,2.3037887113520887
1763354779376207360,4.7432074546813965,-0.044728972017765045,-0.0677446573972702,-0.016029376536607742,0.05382474884390831,-0.20247164368629456,-0.9778078198432922,0.02188936620950699,0.048968225717544556,-0.010931193828582764,0.4019367838676341,0.016393118583862564,0.10405457863440362,0.9095882514477038,0.20388117946748824,0.054990849858585385,2.3037897118173594
1763354779386253312,4.75325345993042,-0.007185856346040964,-0.10813628882169724,-0.027772318571805954,0.05264429375529289,-0.20182915031909943,-0.9780048727989197,0.019819695502519608,0.047547534108161926,-0.017676889896392822,0.40209137070349976,0.01681991711562582,0.10351156544235335,0.9095740412754392,0.20322514903154365,0.0537763541237205,2.303635881969813
1763354779396300288,4.76330041885376,0.030093805864453316,-0.14296583831310272,-0.01693050190806389,0.051010701805353165,-0.20209947228431702,-0.9780356287956238,0.022872358560562134,0.04928269982337952,-0.01216822862625122,0.4022339490107688,0.0176417624996686,0.10330027967839549,0.909519538553864,0.20350116099801266,0.05210906665585593,2.303492287471541
1763354779406346240,4.773346424102783,0.056256696581840515,-0.17714165151119232,-0.004115370102226734,0.0492154024541378,-0.20320023596286774,-0.9778995513916016,0.026010431349277496,0.04279984533786774,-0.009145736694335938,0.4023363603732063,0.018704963566144872,0.10344251255741302,0.9094368217888696,0.2046252409360923,0.05028524053314264,2.3033944039223972
1763354779416392448,4.783392429351807,0.06410080939531326,-0.1889064759016037,0.010391579940915108,0.047469716519117355,-0.20448283851146698,-0.9777184724807739,0.02101173624396324,0.03031902015209198,-0.010440707206726074,0.4023991755140304,0.01977869893386724,0.10368013301883416,0.9093592303325,0.2059353508155006,0.04851342200172043,2.3033656077890536
1763354779426440192,4.793440341949463,0.03771873190999031,-0.1791028380393982,0.01172901876270771,0.04609222337603569,-0.20521976053714752,-0.9776299595832825,0.010777279734611511,0.016468539834022522,-0.0025183558464050293,0.40244989103160655,0.020569289299250535,0.1037396758240982,0.9093123897900632,0.20668824267309144,0.04711201425716773,2.303361079413287
1763354779436486144,4.803486347198486,-0.01287483423948288,-0.15752734243869781,0.01659621112048626,0.04519743099808693,-0.20485571026802063,-0.9777480959892273,-0.0037393011152744293,0.0011508762836456299,0.008952319622039795,0.40251622317118335,0.02091217808938577,0.10338585395266466,0.9093155356397133,0.20631628678271763,0.04619316399163881,2.303345720870548
1763354779446532352,4.81353235244751,-0.061898037791252136,-0.1446019560098648,0.016330961138010025,0.0444827675819397,-0.2034422606229782,-0.9780759215354919,-0.013354841619729996,-0.011218369007110596,0.02168560028076172,0.4025931784496837,0.02095627377242061,0.10258103261582911,0.9093715938074741,0.20487243055425333,0.04544855326246978,2.3033601207611603
1763354779456579328,4.82357931137085,-0.07855397462844849,-0.11052148789167404,0.017332397401332855,0.04383688420057297,-0.2016492784023285,-0.9784762859344482,-0.01742391660809517,-0.022242918610572815,0.023047268390655518,0.4026481979620997,0.020887761347649227,0.10161468398494357,0.909457323642881,0.2030414961536971,0.04477123189943092,2.3034398569259684
1763354779466625280,4.833625316619873,-0.0688246563076973,-0.07816248387098312,0.026721106842160225,0.04341192916035652,-0.19995014369487762,-0.9788438677787781,-0.01733466610312462,-0.011719763278961182,0.008049249649047852,0.4026527722171924,0.020731745072952407,0.10073854288155985,0.909556285728156,0.20130703192448063,0.04432116346330012,2.303596643854814
1763354779476671232,4.8436713218688965,-0.08014944940805435,-0.07005158811807632,0.035126395523548126,0.04323771223425865,-0.19824814796447754,-0.9791977405548096,-0.012079272419214249,0.013937234878540039,0.0005295276641845703,0.4026080538441594,0.02045481030292134,0.09991367582006574,0.909673283037496,0.19957026723428656,0.04412759864325277,2.3038322798711204
1763354779486718208,4.853718280792236,-0.0910596176981926,-0.07181646674871445,0.029507126659154892,0.04317464679479599,-0.19657619297504425,-0.9795375466346741,-0.005973711609840393,0.02955348789691925,0.006774485111236572,0.40255601238146055,0.02013251526859984,0.09912578390009374,0.9097898336566873,0.19786474866728798,0.0440480509002083,2.304068880074143
1763354779496764160,4.86376428604126,-0.10187544673681259,-0.05317733436822891,0.01594693213701248,0.0431239940226078,-0.19501619040966034,-0.9798515439033508,-0.006884369999170303,0.01685456931591034,0.01180344820022583,0.40254858646189445,0.01983273083890019,0.09839157491448934,0.909879322163852,0.196273961666981,0.04398236246902495,2.3041970651103947
1763354779506810112,4.873810291290283,-0.12638132274150848,-0.02392144314944744,0.011650188826024532,0.04310902580618858,-0.19372880458831787,-0.9801075458526611,-0.014391988515853882,-0.0007749795913696289,0.009267091751098633,0.4025390573381992,0.01957277087272914,0.09779133376229118,0.909953829127254,0.19496154302977153,0.043955646472288855,2.304306867806691
1763354779516857344,4.883857488632202,-0.15954959392547607,0.014555308036506176,0.007639911491423845,0.04302198812365532,-0.1926833838224411,-0.9803174138069153,-0.021201923489570618,-0.004872158169746399,0.011460602283477783,0.4025098405243275,0.019393809710394273,0.09728913620755406,0.9100244346064077,0.19389604114730366,0.04385763214897585,2.304451190920194
1763354779526903296,4.893903493881226,-0.2213602364063263,0.03218463435769081,-0.00910977367311716,0.042958930134773254,-0.19152532517910004,-0.9805470705032349,-0.021138861775398254,-0.006930485367774963,0.010774731636047363,0.4024901433393208,0.019181716631518766,0.09673944588580391,0.9100962650258727,0.1927160019244573,0.043783186462688584,2.304579150205239
1763354779536949504,4.903949499130249,-0.24708600342273712,0.025708526372909546,-0.010311746969819069,0.04280787706375122,-0.19034072756767273,-0.9807843565940857,-0.01258021593093872,-0.007703080773353577,0.004008233547210693,0.4024929778729227,0.019007004089203965,0.09615908845562489,0.9101602593480708,0.1915092132445655,0.043618890204646744,2.3046685247006247
1763354779546996480,4.913996458053589,-0.270454466342926,0.03209025785326958,-0.018420806154608727,0.04258746653795242,-0.1884961873292923,-0.9811500906944275,-0.007446467876434326,-0.013804838061332703,0.01676410436630249,0.40252758290897017,0.018731474998416705,0.09525799999741,0.910245426129369,0.1896306596450139,0.0433784301164121,2.3047383841112454
1763354779557042432,4.924042463302612,-0.2536320686340332,0.04888814687728882,-0.029606083407998085,0.04267088696360588,-0.18576419353485107,-0.9816673994064331,-0.01198546215891838,-0.005474209785461426,0.022347331047058105,0.40263488070497544,0.018141353118343105,0.09400636772669377,0.9103399554642612,0.18684953036628668,0.043440420123222474,2.3046729675947404
1763354779567088384,4.934088468551636,-0.21989406645298004,0.07031061500310898,-0.027928557246923447,0.043162260204553604,-0.1829041987657547,-0.9821828007698059,-0.016703519970178604,0.0121125727891922,0.014806091785430908,0.40276807367714007,0.017340519010264444,0.09277877796661602,0.910422574851033,0.18393967936726777,0.04391698409052851,2.3045151713208667
1763354779577135360,4.944135427474976,-0.192598357796669,0.09691090136766434,-0.02666098065674305,0.04387183114886284,-0.18080909550189972,-0.9825392365455627,-0.017138425260782242,0.03264625370502472,0.005183279514312744,0.40286640610172025,0.016593678441410104,0.09195126776322096,0.9104769645618433,0.18180904143973228,0.04462183963033671,2.3043616734742685
1763354779587181312,4.954181432723999,-0.1861332654953003,0.10337413102388382,-0.023306462913751602,0.0445665642619133,-0.17933496832847595,-0.9827780723571777,-0.010981965810060501,0.040754660964012146,-0.00640338659286499,0.4029228363248279,0.01597733412028667,0.09140937843818742,0.9105176361172233,0.18031041832884598,0.04531648781781894,2.304262038049714
1763354779597227264,4.9642274379730225,-0.22025112807750702,0.09096495807170868,-0.024566583335399628,0.045102789998054504,-0.17778143286705017,-0.9830358624458313,-0.0012948065996170044,0.02450689673423767,-0.009304225444793701,0.40298125995271444,0.015417612656285171,0.09079850283009623,0.9105624885205387,0.1787315155786923,0.04584897071204895,2.304179430821865
1763354779607274240,4.974274396896362,-0.2848988175392151,0.06642632931470871,-0.012705662287771702,0.045347440987825394,-0.1758377104997635,-0.9833741188049316,0.006562970578670502,-0.004444882273674011,-0.0013823509216308594,0.403007533741258,0.014908207274398833,0.08994816086477628,0.9106438022684828,0.17675667253183489,0.046081480721689556,2.30422238702831
1763354779617320192,4.984320402145386,-0.3689526915550232,0.0661269873380661,-0.0008074576035141945,0.04556897282600403,-0.17326128482818604,-0.9838210940361023,0.00472399964928627,-0.026674628257751465,0.011271655559539795,0.4029888104463548,0.01427512297345602,0.0888012440860543,0.9107747442992618,0.17414008317252883,0.046285270483059755,2.304406091426338
1763354779627366400,4.994366407394409,-0.4245070815086365,0.07356759160757065,0.005045637954026461,0.04598146304488182,-0.1702909916639328,-0.9843204021453857,-0.002646505832672119,-0.0369233638048172,0.021322965621948242,0.40294407728242454,0.013471506571754827,0.08751177437273745,0.9109314936794161,0.17112496511335512,0.046679982829304766,2.3046519060523996
1763354779637413376,5.004413366317749,-0.4632815718650818,0.08600825071334839,0.02284487523138523,0.046350352466106415,-0.16662296652793884,-0.984930694103241,-0.008935801684856415,-0.029696613550186157,0.023504912853240967,0.4028386861769996,0.01253961014939482,0.08589191842434349,0.9111456252192486,0.16740376448317423,0.04702481520145843,2.305077937715254
1763354779647459328,5.0144593715667725,-0.45805084705352783,0.06454929709434509,0.03137391433119774,0.04646250978112221,-0.16227449476718903,-0.9856511950492859,-0.006789658218622208,-0.012545451521873474,0.01932734251022339,0.40268573875461267,0.01158269152101149,0.0839062412486364,0.9114108988467059,0.16299526504332013,0.047104030130086925,2.3056719555949785
1763354779657505280,5.024505376815796,-0.4208196997642517,0.07548510283231735,0.059723615646362305,0.04706713557243347,-0.15790589153766632,-0.9863318204879761,-0.0020384564995765686,0.005531623959541321,0.007587313652038574,0.4024846695526886,0.010393146673820328,0.08201270784698696,0.911686299172216,0.158569574084708,0.04768320269596789,2.306323209171608
1763354779667552256,5.034552335739136,-0.4141671061515808,0.09808602184057236,0.10936307907104492,0.04777806997299194,-0.15379555523395538,-0.9869468808174133,-0.0010709166526794434,0.025209754705429077,-0.01047438383102417,0.4020825829481197,0.009191674648759538,0.0802624658383786,0.9120323901673093,0.15440839696340874,0.048372205783409956,2.307388354539368
1763354779677598208,5.044598340988159,-0.4420483708381653,0.13101264834403992,0.1363597959280014,0.04874323308467865,-0.14962469041347504,-0.9875406622886658,-0.006720531731843948,0.028988704085350037,-0.0029836297035217285,0.40149887037057214,0.007848029583041392,0.07853712715979184,0.9124521472317189,0.1501886795081727,0.04931817941964774,2.308831023936657
1763354779687644160,5.054644346237183,-0.5182299613952637,0.15519362688064575,0.17022056877613068,0.04993712157011032,-0.14497816562652588,-0.9881739020347595,-0.014857165515422821,0.003803849220275879,0.0059961676597595215,0.40075719362677653,0.006292644126666495,0.0766385232049933,0.9129515810751468,0.14549090599716244,0.050491798142891356,2.31062722923599
1763354779697691136,5.0646913051605225,-0.6494936943054199,0.16798371076583862,0.19494393467903137,0.05128878727555275,-0.139282688498497,-0.9889235496520996,-0.014164149761199951,-0.03816176950931549,0.02099752426147461,0.39986697040140534,0.004444526321325492,0.07428640042897725,0.913547073779124,0.13973700303225878,0.051816822585826275,2.3127954127581134
1763354779707737088,5.074737310409546,-0.819611668586731,0.17797216773033142,0.19691839814186096,0.052753958851099014,-0.13209137320518494,-0.9898327589035034,-0.011585745960474014,-0.06685271859169006,0.030344843864440918,0.3989238756029327,0.0022445673309506396,0.07126417345053515,0.9142079397277497,0.132478541647083,0.05324545404840575,2.3151531827576397
1763354779717783296,5.084783315658569,-1.0272856950759888,0.17990505695343018,0.18851187825202942,0.054288577288389206,-0.12298436462879181,-0.9909225702285767,-0.006559085100889206,-0.0739608183503151,0.028672873973846436,0.39797475488428746,-0.0003641522111858713,0.06736889349129101,0.9149193502191507,0.12329651729433276,0.05473117637990556,2.3176210274150253
1763354779727830272,5.094830274581909,-1.1019073724746704,0.1795330047607422,0.1614760011434555,0.05585016682744026,-0.11236302554607391,-0.9920964241027832,-0.00467219203710556,-0.07709009945392609,0.0330662727355957,0.39709805611955207,-0.0032721470050541125,0.06277804108672647,0.9156207267551577,0.11260081722356866,0.056235743999480066,2.3200016111330313
1763354779737876224,5.104876279830933,-1.1210358142852783,0.19872045516967773,0.15072418749332428,0.057546116411685944,-0.10133175551891327,-0.9931869506835938,-0.010564304888248444,-0.07246585190296173,0.02527618408203125,0.3963113232941432,-0.006305596486840877,0.05802382312012052,0.9162591234113895,0.10150597678237853,0.057876162534963436,2.3221860599496433
1763354779747922176,5.114922285079956,-1.0606573820114136,0.24642086029052734,0.15466059744358063,0.05963706970214844,-0.09047022461891174,-0.994111955165863,-0.020406723022460938,-0.030516721308231354,0.03502076864242554,0.3955154140831124,-0.009475993625970423,0.053425025835312945,0.9168551991504826,0.09059409347093329,0.05991848660693941,2.324347092439505
1763354779757969408,5.124969482421875,-0.9794073104858398,0.27576035261154175,0.19216562807559967,0.0621090903878212,-0.0803755670785904,-0.9948277473449707,-0.0244351364672184,0.029563799500465393,0.027054309844970703,0.3945881985272247,-0.012666116094301601,0.04925139462908615,0.9174498102031557,0.08046235879378939,0.062351078665638236,2.3267300378925952
1763354779768015360,5.135015487670898,-0.8729024529457092,0.28181958198547363,0.20661647617816925,0.06475380808115005,-0.07123975455760956,-0.9953551292419434,-0.014735497534275055,0.06434278190135956,0.01168203353881836,0.3935351068095009,-0.015742363966229092,0.04554789781083454,0.9180456516533412,0.07130014949354158,0.06496444151795089,2.329331331775049
1763354779778061312,5.145061492919922,-0.841689944267273,0.2454512119293213,0.22137011587619781,0.06726282089948654,-0.06286773830652237,-0.9957526326179504,0.0033548474311828613,0.06285248696804047,-0.020040154457092285,0.3924207212977397,-0.018599042384853118,0.04216331789484253,0.9186306856988874,0.06290922240313016,0.06744726599554365,2.332038169370225
1763354779788108288,5.155108451843262,-0.8738113641738892,0.19185881316661835,0.2128615826368332,0.06931175291538239,-0.054414331912994385,-0.9961099028587341,0.023324355483055115,0.034394800662994385,-0.01476961374282837,0.39127640269298575,-0.021252043192939444,0.03864445018338037,0.9192157939215634,0.054441220476155516,0.06947045771994229,2.3348357338462513
1763354779798154240,5.165154457092285,-0.9157479405403137,0.1532188504934311,0.1758667379617691,0.07093050330877304,-0.04560093209147453,-0.9964383840560913,0.02425382286310196,-0.002693135291337967,0.007439970970153809,0.39024449206869616,-0.02376350297414991,0.03487280304279768,0.9197437469831341,0.04561675169377586,0.0710641669906793,2.337420872458352
1763354779808200448,5.175200462341309,-0.9561057686805725,0.14190441370010376,0.14874696731567383,0.07234146445989609,-0.03627261891961098,-0.9967201352119446,0.012405849993228912,-0.024320028722286224,0.00524979829788208,0.3893470689726466,-0.026266080464766698,0.03082255491819085,0.920200536101569,0.03628057894683322,0.07245247397266728,2.339738395863245
1763354779818247424,5.185247421264648,-0.9041932225227356,0.12871630489826202,0.13483017683029175,0.07363981753587723,-0.027058785781264305,-0.996917724609375,0.0030508488416671753,-0.021036911755800247,0.009536802768707275,0.3885561148984912,-0.02868325636523031,0.026802907366983056,0.9205884824883771,0.027062089389385084,0.07373358386619668,2.341815804349996
1763354779828293376,5.195293426513672,-0.8004335165023804,0.11852864921092987,0.1298636496067047,0.07485955953598022,-0.01854679547250271,-0.9970216155052185,0.0014801621437072754,0.00466129370033741,0.015850961208343506,0.38780459697842623,-0.030920117179092408,0.023090009862772227,0.9209333929096422,0.018547858551692442,0.07494257076163842,2.3437727183530552
1763354779838339328,5.205339431762695,-0.6278701424598694,0.09288337081670761,0.13252726197242737,0.0759022980928421,-0.011461818590760231,-0.9970493912696838,0.006647750735282898,0.05366762727499008,0.004724562168121338,0.3870786012579955,-0.03279242451240126,0.019999162686732685,0.921246323476312,0.011462069548907348,0.0759803680344671,2.345614674486073
1763354779848386304,5.215386390686035,-0.43416595458984375,0.05695785954594612,0.14068186283111572,0.07662919908761978,-0.006255171727389097,-0.9970400333404541,0.01957746595144272,0.09846403449773788,-0.0229337215423584,0.38635293091727646,-0.034150948063634966,0.017711392293842936,0.9215483761237698,0.006255212650504781,0.07670589546050195,2.347383539641264
1763354779858432256,5.225432395935059,-0.29710787534713745,0.026875490322709084,0.17047810554504395,0.07704557478427887,-0.002770062303170562,-0.9970237016677856,0.027675487101078033,0.1223989725112915,-0.034058451652526855,0.3855637371821115,-0.03503128895467621,0.01615385555129614,0.921874395468153,0.002770065808892511,0.07712230334387692,2.3492256776247475
1763354779868478208,5.235478401184082,-0.32925674319267273,-0.15219733119010925,0.18390576541423798,0.07674383372068405,0.0013574076583608985,-0.9970499277114868,0.03498101979494095,0.11900392174720764,-0.030537962913513184,0.3845248210940808,-0.03570465240032114,0.014149846218151697,0.9223154129987703,-0.0013574080526424807,0.07681943982694243,2.3516437563149375
1763354779878525184,5.245525360107422,-0.016482185572385788,-0.05681900680065155,0.1325407475233078,0.07587727904319763,0.0023135922383517027,-0.9971144795417786,0.04558268189430237,0.12467005103826523,0.010771095752716064,0.3838073635511794,-0.03549859152298286,0.013513328204810163,0.9226316794981644,-0.0023135943140074494,0.07595048172918546,2.353248430357183
1763354779888571136,5.255571365356445,-0.19147422909736633,-0.04120728746056557,0.10393121093511581,0.07538299262523651,0.003372906008735299,-0.9971489310264587,0.0012008622288703918,-0.001663919072598219,-0.06953191757202148,0.3832553949948214,-0.03548128552078959,0.012907489673637427,0.9228704733270889,-0.003372912380580572,0.07545499999110712,2.354491441742268
1763354779898617344,5.265617370605469,-0.19014206528663635,-0.01527961902320385,0.06569211184978485,0.07514720410108566,0.00526898680254817,-0.9971585273742676,-0.01724010705947876,-0.023915225639939308,0.036953508853912354,0.38284088827271184,-0.035741494823497,0.011969959334184262,0.9230450900730538,-0.005269011249360768,0.07521915608472624,2.3554625769676405
1763354779908664320,5.275664329528809,-0.20963294804096222,-0.027332287281751633,0.05362293869256973,0.07499394565820694,0.007227777037769556,-0.9971578121185303,-0.01305852085351944,-0.011652825400233269,0.015239477157592773,0.38252708013899256,-0.03604990419533228,0.01102301960219761,0.9231749972181746,-0.00722783993331293,0.0750663858473232,2.3562155004870498
1763354779918710272,5.285710334777832,-0.19419395923614502,-0.05886101722717285,0.0632057934999466,0.07456384599208832,0.009259829297661781,-0.9971732497215271,0.008718624711036682,0.019457215443253517,-0.0027962327003479004,0.38222987261635105,-0.036243394472654476,0.009989570618545813,0.9233022872593198,-0.009259961638167323,0.07463631481711427,2.3569368789349943
1763354779928756224,5.2957563400268555,-0.14710767567157745,-0.07581523805856705,0.07304031401872635,0.07388843595981598,0.010936425067484379,-0.9972065687179565,0.01859508454799652,0.033756569027900696,-0.000962376594543457,0.3818757879674145,-0.036255239370674874,0.009071109193368872,0.9234576941406771,-0.010936643068204209,0.07396026272550325,2.357769376163121
1763354779938803200,5.305803298950195,-0.0824359655380249,-0.06657090038061142,0.07136323302984238,0.07317639142274857,0.01206702645868063,-0.9972460269927979,0.010106079280376434,0.031252674758434296,0.0019762516021728516,0.38151452092223903,-0.03614515293713842,0.008397833780802074,0.9236176473612208,-0.012067319325938108,0.07324720112821836,2.3585973395051707
1763354779948849152,5.315849304199219,-0.01641087979078293,-0.048266198486089706,0.07007826119661331,0.07258213311433792,0.012508134357631207,-0.9972839951515198,-0.002178080379962921,0.03525187820196152,0.005523741245269775,0.3811760437686845,-0.03595724656992552,0.0080669341770695,0.9237677490366928,-0.012508460911659147,0.07265170778083647,2.3593506687250723
1763354779958895104,5.325895309448242,0.022517941892147064,-0.025545772165060043,0.07873068749904633,0.07222171872854233,0.01241943147033453,-0.9973112940788269,-0.008974038064479828,0.043366700410842896,0.0017058253288269043,0.3808241700563097,-0.03577645920946699,0.008025394719192776,0.9239202207090559,-0.012419751140621382,0.07229023408682757,2.3601125386633885
1763354779968942336,5.335942506790161,0.03092767298221588,-0.018169615417718887,0.07913282513618469,0.07200843095779419,0.012080066837370396,-0.9973308444023132,-0.0040915608406066895,0.05016053467988968,-0.007262051105499268,0.38045650762356864,-0.03561616782654741,0.008127428216543744,0.9240770110995616,-0.012080360326539037,0.07207607350779878,2.360898883396033
1763354779978988288,5.3459882736206055,0.013301041908562183,-0.020236261188983917,0.0556916818022728,0.07183367758989334,0.01182296872138977,-0.9973465204238892,0.001149103045463562,0.03540298342704773,-0.0023177266120910645,0.38014218035274006,-0.03548900987231427,0.008200928941469938,0.9242105771959108,-0.011823244099951155,0.07190063046808962,2.361572006421998
1763354779989034240,5.356034278869629,-0.010879128240048885,-0.026233967393636703,0.023736678063869476,0.07161065936088562,0.011781820096075535,-0.9973630905151367,0.004942692816257477,0.009580487385392189,0.0004911422729492188,0.3799647905299755,-0.035379419188158776,0.008170638986686634,0.9242880047349585,-0.01178209258092453,0.07167698523184964,2.3619564963442574
1763354779999081472,5.366081476211548,-0.047307807952165604,-0.012050935998558998,0.005304940510541201,0.07151775062084198,0.012201565317809582,-0.9973646998405457,-0.00019817054271697998,-0.0014746356755495071,0.008686721324920654,0.37990096238120563,-0.03541681043294019,0.007956269908289649,0.924314755587168,-0.01220186816269015,0.0715841952132571,2.3621095820419176
1763354780009127424,5.376127481460571,-0.08269216865301132,0.009849302470684052,0.004110512789338827,0.0717262476682663,0.013163648545742035,-0.9973374605178833,-0.009500913321971893,0.003193773329257965,0.011360347270965576,0.37987692046991733,-0.03569670628564185,0.0075499301646866895,0.9243172109121964,-0.013164029124062426,0.07179412364865378,2.3621917039947387
1763354780019173376,5.386173486709595,-0.11720942705869675,0.032204173505306244,0.0039489478804171085,0.07206059247255325,0.014548983424901962,-0.9972941279411316,-0.010354049503803253,0.003090175800025463,0.014567077159881592,0.37984140489276846,-0.03611554001611276,0.006971270894844979,0.924320088581445,-0.014549496774129863,0.07213075205009635,2.362311855647165
1763354780029220352,5.396220445632935,-0.09434965252876282,0.03135596215724945,-0.017622657120227814,0.07234274595975876,0.01617470756173134,-0.997248649597168,-0.010163187980651855,-0.0033573247492313385,0.014735281467437744,0.3798598427900765,-0.03655555486544084,0.006273539911663482,0.9243001659367196,-0.0161754120430935,0.07241548224872577,2.362323481396421
1763354780039266304,5.406266450881958,-0.06289469450712204,0.03946145623922348,-0.016239676624536514,0.07234333455562592,0.018471764400601387,-0.9972087144851685,-0.0052199214696884155,5.240924656391144e-05,0.006470799446105957,0.3799605772874777,-0.036992487260882084,0.005214838668907939,0.9242480251867907,-0.018472815554878712,0.07241896163454278,2.362180686406193
1763354780049312256,5.4163124561309814,-0.02227589301764965,0.044661279767751694,-0.003906578291207552,0.07257102429866791,0.020534399896860123,-0.9971518516540527,-0.0014955848455429077,0.025623437017202377,0.004338741302490234,0.38002636500449194,-0.037490465871339994,0.004306579967996954,0.9242056001114974,-0.02053584365587518,0.07265022168151196,2.3621037539241354
1763354780059359232,5.426359415054321,-0.0011019976809620857,0.04280409216880798,0.009214728139340878,0.07304102182388306,0.021751515567302704,-0.9970917105674744,0.00010961294174194336,0.042793162167072296,0.0026916861534118652,0.38003090756978003,-0.037940089545335405,0.003833257689511874,0.9241874494127148,-0.021753231607822797,0.07312345523220003,2.362130906149053
1763354780069405440,5.436405420303345,-0.0032538319937884808,0.03923119604587555,0.0036479225382208824,0.07360860705375671,0.021733343601226807,-0.9970503449440002,0.003021024167537689,0.03455632925033569,-0.0006607770919799805,0.37999430740483775,-0.038199829523022186,0.003948366818068793,0.9241912250219317,-0.02173505487089239,0.07369267984553483,2.362206943378726
1763354780079451392,5.446451425552368,-0.0318550169467926,0.031076759099960327,-0.012164241634309292,0.07389074563980103,0.021461255848407745,-0.9970353841781616,0.004447869956493378,0.010429609566926956,0.0008959174156188965,0.37999570862793797,-0.038278753024511274,0.004128098645538944,0.9241866426967564,-0.021462904304924015,0.07397521745764371,2.362193922642786
1763354780089498368,5.456498384475708,-0.06084033101797104,0.023477695882320404,-0.022532993927598,0.07374539971351624,0.02174060419201851,-0.9970400929450989,0.0015262067317962646,-0.004070926457643509,0.016220390796661377,0.3800720495361224,-0.038264274105703135,0.00397430428043925,0.9241565278581376,-0.02174231667217592,0.07382988991200762,2.3620384496383173
1763354780099544320,5.4665443897247314,-0.08043640106916428,0.02658294141292572,-0.02362409047782421,0.07357945293188095,0.022312521934509277,-0.9970397353172302,-0.0006577000021934509,-0.007358908653259277,0.018356263637542725,0.3801730013394959,-0.03829592409698392,0.003682242512706323,0.9241149647873176,-0.02231437377743873,0.0736643784927165,2.361839303011756
1763354780109590272,5.476590394973755,-0.08438533544540405,0.019691213965415955,-0.024974845349788666,0.07345160096883774,0.02281644567847252,-0.9970377683639526,-0.00048407167196273804,8.700042963027954e-05,0.010282397270202637,0.3802757687826159,-0.0383323291197799,0.0034289891428160744,0.9240721615754768,-0.022818425165451975,0.07353698554454316,2.361633631497269
1763354780119637248,5.486637353897095,-0.07823096960783005,0.015159247443079948,-0.024031907320022583,0.07342540472745895,0.023519206792116165,-0.997023344039917,0.004760630428791046,0.011987995356321335,0.0018908977508544922,0.38037205177943917,-0.03845384004238218,0.0031028933625871584,0.9240286443139235,-0.023521376203919434,0.07351191520064213,2.3614478515344643
1763354780129683200,5.496683359146118,-0.04866322502493858,0.011043863371014595,-0.022239070385694504,0.0734662413597107,0.024998337030410767,-0.9969843626022339,0.006398260593414307,0.019542070105671883,0.0017756223678588867,0.3804787460207952,-0.03875455299113864,0.0024309286881346055,0.9239741001703076,-0.025000941534448,0.07355551544388056,2.361263698970892
1763354780139729152,5.506729364395142,-0.0317879393696785,-0.005241533275693655,-0.01504453830420971,0.07350946217775345,0.026788916438817978,-0.9969346523284912,0.008201353251934052,0.02136782370507717,-0.0007612705230712891,0.38058347620154537,-0.03911599973928186,0.0016153447912342724,0.923917539305351,-0.026792120737313727,0.07360229084993554,2.361093329960381
1763354780149776128,5.5167763233184814,-0.015596717596054077,-0.012095710262656212,-0.0014981040731072426,0.07353528589010239,0.028042830526828766,-0.9968982934951782,0.008572258055210114,0.020953141152858734,0.0032764673233032227,0.3806288798767463,-0.03936722586219849,0.0010422118468367372,0.9238890066782794,-0.028046506814745454,0.07363073065571683,2.3610341651748015
1763354780159822336,5.526822328567505,-0.02774129807949066,-0.01814557984471321,0.010027790442109108,0.07355086505413055,0.028369080275297165,-0.9968878626823425,0.005779571831226349,0.013424739241600037,0.007141828536987305,0.380602842373453,-0.03943675196811843,0.000893173097769903,0.9238968183379359,-0.028372886859933357,0.07364704019636661,2.3611004253869585
1763354780169868288,5.536868333816528,-0.04637650027871132,-0.022455640137195587,-0.001351629849523306,0.07345272600650787,0.028404265642166138,-0.996894121170044,0.0046875327825546265,0.0007095038890838623,0.0028908252716064453,0.3805719587063932,-0.03939801544204213,0.0008568427814316867,0.9239112981053368,-0.028408087184400507,0.07354866386290801,2.3611686094946998
1763354780179915264,5.546915292739868,-0.07495858520269394,-0.033954933285713196,-0.0007055471651256084,0.07318256795406342,0.028581786900758743,-0.9969089031219482,0.0044083669781684875,-0.0049306657165288925,-0.00019186735153198242,0.3805650608674746,-0.03930671498876024,0.0007228659526060582,0.92391815527291,-0.028585679739354695,0.07327804289920091,2.361189280658208
1763354780189961216,5.556961297988892,-0.08848930150270462,-0.04515645653009415,0.004501199349761009,0.0728175938129425,0.029223935678601265,-0.9969170093536377,0.006970606744289398,-0.002032775431871414,0.0019066929817199707,0.3805436437125398,-0.0392601580985282,0.0003552612234002644,0.9239291755064035,-0.02922809613902768,0.07291329848408062,2.3612555392427454
1763354780200007168,5.567007303237915,-0.09355895966291428,-0.0416058674454689,0.00573379872366786,0.07256375998258591,0.030340526252985,-0.9969021677970886,0.007026083767414093,0.00031438469886779785,0.004302680492401123,0.3804949652366166,-0.03935563259490615,-0.00021174705860853188,0.9239451784387243,-0.03034518237159627,0.07266109932056429,2.361394712929411
1763354780210054400,5.577054500579834,-0.0905115082859993,-0.02678031288087368,0.001202696468681097,0.07245343923568726,0.03168706223368645,-0.9968683123588562,0.0012159943580627441,0.003835398703813553,0.005642116069793701,0.38045632208401436,-0.03956146254363997,-0.0008573210076921664,0.9239519698082207,-0.031692369008039054,0.07255347456075616,2.36151873295708
1763354780220100352,5.587100505828857,-0.08396162837743759,-0.028382837772369385,0.0044205933809280396,0.07244997471570969,0.033067215234041214,-0.9968237280845642,-0.0004437565803527832,0.008192546665668488,0.0031409263610839844,0.38042848249420447,-0.039823225436937094,-0.001497609021525518,0.923951311340486,-0.03307324322038425,0.07255325519756978,2.3616198040131877
1763354780230146048,5.597146272659302,-0.06753364950418472,-0.03780217468738556,0.005111151374876499,0.07242754101753235,0.0342923142015934,-0.996783971786499,0.0016081035137176514,0.011941816657781601,0.0060155391693115234,0.380393827675196,-0.040046574933240646,-0.0020701098458641913,0.92395482253937,-0.0342990404399812,0.07253374672764384,2.361730788454274
1763354780240193280,5.607193470001221,-0.049509212374687195,-0.03332476317882538,0.002360550221055746,0.07230629771947861,0.03511460870504379,-0.9967641234397888,0.003362037241458893,0.012431778013706207,0.0007466673851013184,0.38037736289854973,-0.0401472822672348,-0.002474346013160533,0.9239562515274363,-0.035121829916174935,0.07241418499407731,2.3617901309564306
1763354780250239488,5.617239475250244,-0.05497215315699577,-0.03912193328142166,0.008441079407930374,0.07211831212043762,0.035447608679533005,-0.9967659711837769,0.004023037850856781,0.016417015343904495,-0.004866659641265869,0.38033330789527503,-0.04012358488621734,-0.002666163634161498,0.9239749212128914,-0.03545503591158621,0.07222644335019059,2.3618946890218706
1763354780260285440,5.627285480499268,-0.07789388298988342,-0.04255058616399765,0.007819408550858498,0.07187411189079285,0.03574950620532036,-0.996772825717926,0.005198031663894653,0.01489441841840744,0.0035019516944885254,0.38026721439023425,-0.0400678130086977,-0.0028552660284198303,0.9240040022997678,-0.03575712494409834,0.07198222946922939,2.3620457557138823
1763354780270332416,5.637332439422607,-0.10808826982975006,-0.03869566321372986,-0.00047394121065735817,0.07169973105192184,0.03643488511443138,-0.9967605471611023,0.0002912357449531555,0.0027344264090061188,0.00956273078918457,0.38022889417161976,-0.04011764023354774,-0.0032072557774992004,0.924016343713082,-0.03644295152244917,0.07180906453357311,2.362147486089456
1763354780280378368,5.647378444671631,-0.16479042172431946,-0.024910341948270798,-0.008179353550076485,0.07162976264953613,0.03763621300458908,-0.9967209696769714,-0.002751588821411133,-0.009834695607423782,0.0077530741691589355,0.3802195917532441,-0.04031439626946969,-0.003776782135677704,0.9240095677928396,-0.0376451030937759,0.07174207378412194,2.3622016224832145
1763354780290424320,5.657424449920654,-0.2104862779378891,-0.023584354668855667,-0.008003851398825645,0.07147220522165298,0.03948334604501724,-0.9966608285903931,-0.0031586065888404846,-0.013451848179101944,0.007280945777893066,0.3802175103623317,-0.040593849026442204,-0.004661480077691132,0.9239941093382757,-0.03949361055231766,0.0715891108743746,2.362256984447527
1763354780300471296,5.667471408843994,-0.23733557760715485,-0.019005481153726578,-0.013044150546193123,0.07127580791711807,0.04179816320538521,-0.9965804815292358,-0.0039998069405555725,-0.017994452267885208,0.01049649715423584,0.38022145710162775,-0.040944663477204296,-0.0057697092861682285,0.923970736352658,-0.041810344704603555,0.07139879857903587,2.362310868500246
1763354780310517248,5.677517414093018,-0.2421495020389557,-0.005222291685640812,-0.010281386785209179,0.07124059647321701,0.04433523118495941,-0.9964733719825745,-0.0053989216685295105,-0.01589284837245941,0.013792097568511963,0.3802293712927808,-0.041412766524971,-0.0069498842831550445,0.9239385068211446,-0.04434976895140398,0.07137129531347013,2.3623618094413574
1763354780320563200,5.687563419342041,-0.21512117981910706,0.01297066081315279,-0.004728695843368769,0.07140879333019257,0.04672433063387871,-0.9963521361351013,-0.010266833007335663,-0.004396449774503708,0.014372825622558594,0.3802246965906575,-0.04194694109582794,-0.008023422957756215,0.9239076505589265,-0.0467413474726282,0.07154789669757709,2.3624365363716544
1763354780330610176,5.697610378265381,-0.1959216594696045,0.03635348007082939,0.007579102646559477,0.07179766148328781,0.0489199198782444,-0.9962188005447388,-0.013020813465118408,0.008407346904277802,0.015002429485321045,0.3801836310523542,-0.042546226752962144,-0.008967078836368152,0.9238884513333487,-0.04893945233692664,0.07194577949588528,2.362586371993406
1763354780340656384,5.707656383514404,-0.17444784939289093,0.042918771505355835,0.016693683341145515,0.07235847413539886,0.0508263073861599,-0.9960827827453613,-0.010041587054729462,0.019058942794799805,0.008335649967193604,0.38008170785221745,-0.04316939123325204,-0.009747073153328333,0.9238935117273321,-0.05084821604248767,0.07251565377442439,2.3628620799593953
1763354780350702336,5.717702388763428,-0.18026791512966156,0.0343945249915123,0.01834937185049057,0.07277339696884155,0.05227639153599739,-0.995977520942688,-0.0018047690391540527,0.01770041510462761,0.0007840394973754883,0.3799629562917699,-0.043637487015889084,-0.010344651127558106,0.9239139347256214,-0.052300231463699616,0.07293769189990941,2.3631613431699168
1763354780360749312,5.727749347686768,-0.2012406885623932,0.03534244745969772,0.014672432094812393,0.07304372638463974,0.053518541157245636,-0.9958917498588562,0.00190744549036026,0.010217420756816864,0.0010492205619812012,0.3798388094680285,-0.043998662116903536,-0.010873923079396356,0.9239417388554194,-0.05354412292902754,0.07321394757673047,2.3634651606868218
1763354780370795264,5.737795352935791,-0.22730903327465057,0.03127739578485489,-0.003364624921232462,0.07326161116361618,0.054972875863313675,-0.9957965016365051,0.0026661157608032227,-0.00028538331389427185,0.010002493858337402,0.3797639714529025,-0.04437654235942481,-0.011509133285616828,0.9239467130313185,-0.055000601552256924,0.07343855697977382,2.3636670647402735
1763354780380841216,5.7478413581848145,-0.236160546541214,0.0296429805457592,-0.004351414740085602,0.07342825084924698,0.05649418756365776,-0.9956991076469421,-0.0011473670601844788,-0.0036835186183452606,0.007433116436004639,0.37972536319814204,-0.044743869243102,-0.012183428364287536,0.9239362401071077,-0.05652428030474632,0.07361217190522355,2.3637915466784776
1763354780390888192,5.757888317108154,-0.24354895949363708,0.044479452073574066,-0.0027473927475512028,0.07361692190170288,0.058184534311294556,-0.9955878257751465,-0.004357278347015381,-0.005877405405044556,0.012525081634521484,0.37968530582977283,-0.04515368754673633,-0.01293190131364644,0.9239226078916403,-0.058217415463979856,0.07380884688585161,2.363923505572924
1763354780400934144,5.767934322357178,-0.23477506637573242,0.039769019931554794,0.005892168264836073,0.07374462485313416,0.060202524065971375,-0.9954583644866943,-0.0019215121865272522,0.0046168118715286255,0.006658375263214111,0.37962704048287726,-0.04559755168306472,-0.013844613733707272,0.9239115327320053,-0.06023894900087887,0.07394600172582998,2.3641018338391104
1763354780410980352,5.777980327606201,-0.23289860785007477,0.031048230826854706,0.01546117290854454,0.0737461969256401,0.06248045712709427,-0.9953178763389587,0.0009303167462348938,0.009220592677593231,0.01051563024520874,0.3795383847456572,-0.046032054331204206,-0.014903289461177837,0.923909894917255,-0.06252117981977767,0.07395797236174012,2.3643496021312984
1763354780421027072,5.788027286529541,-0.24093219637870789,0.02035527303814888,0.022574208676815033,0.07374752312898636,0.06503096967935562,-0.9951543807983398,0.004606358706951141,0.008791051805019379,0.007025718688964844,0.3794019676539419,-0.0465176146864897,-0.016090770185583216,0.923921660865747,-0.06507689505513503,0.07397140104727992,2.3647062822926905
1763354780431072000,5.798072099685669,-0.26253604888916016,0.02456413395702839,0.029376987367868423,0.07392016798257828,0.06766286492347717,-0.9949660897254944,0.0041742995381355286,0.00492318719625473,0.0010391473770141602,0.3792306407495404,-0.04709739671504521,-0.01728536046072338,0.923941167788837,-0.06771460051980178,0.07415791895586388,2.365142678275082
1763354780441117952,5.808118104934692,-0.26721668243408203,0.024030037224292755,0.027552809566259384,0.07421264052391052,0.07019321620464325,-0.9947690367698669,0.0005706846714019775,-0.0022763535380363464,0.0032529234886169434,0.3790323314421118,-0.04771264082197691,-0.018411845516155455,0.9239691072343595,-0.07025098944946978,0.07446494665520252,2.3656361867960864
1763354780451164928,5.818165063858032,-0.26023173332214355,0.012166452594101429,0.02734268829226494,0.07448209077119827,0.07243598252534866,-0.9945880770683289,-0.0001412704586982727,-0.007555611431598663,0.007588565349578857,0.3788270532814798,-0.048261843082954184,-0.01941018993179597,0.9240043130411522,-0.07249947698692678,0.07474785358710895,2.3661374054038617
1763354780461210880,5.828211069107056,-0.21560513973236084,0.010863367468118668,0.03347683697938919,0.07458899170160294,0.07433229684829712,-0.9944401383399963,0.0005147680640220642,0.00034421682357788086,0.010156691074371338,0.378633238292987,-0.04866938542576848,-0.020278585634596964,0.9240437768916573,-0.07440091774706738,0.07486582938445728,2.3666021995675455
1763354780471257088,5.838257074356079,-0.16903071105480194,0.01810290478169918,0.04694044589996338,0.07464419305324554,0.07568273693323135,-0.9943341612815857,0.0019244104623794556,0.020401857793331146,0.005152642726898193,0.37840020618037423,-0.04894759338352365,-0.02090614452202227,0.9241105374866203,-0.07575517285151233,0.07492898731327151,2.36713794106743
1763354780481303808,5.848304033279419,-0.12301316112279892,0.02627827599644661,0.057155441492795944,0.07484301924705505,0.07684595137834549,-0.9942299723625183,0.0025648176670074463,0.03953283280134201,-0.00036841630935668945,0.3781260265341777,-0.04925558532286507,-0.021422065546878345,0.9241946637812921,-0.07692178963176226,0.07513566077321715,2.367761847596181
1763354780491350016,5.858350038528442,-0.08715209364891052,0.0292852520942688,0.05342142656445503,0.07516573369503021,0.0777546688914299,-0.9941349625587463,0.0022115856409072876,0.0449412539601326,-0.0019282698631286621,0.3778474769010024,-0.04957227476480201,-0.02179698075770782,0.9242828084264613,-0.07783322903454952,0.07546559764193789,2.368392146324365
1763354780501395968,5.868396043777466,-0.062348343431949615,0.03920779377222061,0.04186490550637245,0.07560642808675766,0.07837538421154022,-0.9940528273582458,0.0004891529679298401,0.03699631989002228,-5.728006362915039e-05,0.3776043680163818,-0.04988957387487595,-0.022014337621688834,0.9243599754392163,-0.07845584923968962,0.07591260921083863,2.368942532111864
1763354780511442944,5.878443002700806,-0.05327149108052254,0.05723472684621811,0.03209323436021805,0.07617069780826569,0.07882005721330643,-0.9939745664596558,-0.003813520073890686,0.027350597083568573,0.007829546928405762,0.37741632913642026,-0.05023201082977747,-0.02212386528546672,0.924415662459326,-0.07890189937719037,0.07648296087318548,2.3693729673935593
1763354780521488896,5.888489007949829,-0.03599955886602402,0.062031082808971405,0.025395207107067108,0.07678098231554031,0.07904002815485,-0.9939101338386536,-0.006758399307727814,0.020966075360774994,0.0068648457527160645,0.3772786010884555,-0.05055424805680479,-0.022117886070489024,0.9244543877741813,-0.07912255598261042,0.07709830813159652,2.3696904532692096
1763354780531534848,5.8985350131988525,-0.014371231198310852,0.05419126898050308,0.015099160373210907,0.07733043283224106,0.07899993658065796,-0.993870735168457,0.00038257986307144165,0.02111297845840454,0.004612922668457031,0.3771868818847445,-0.050799814934114736,-0.02200038910720442,0.9244811960046361,-0.07908234427712658,0.07765088684409044,2.369901234760364
1763354780541581824,5.908581972122192,0.004157279152423143,0.04417848214507103,0.012391790747642517,0.07778754085302353,0.07896320521831512,-0.9938379526138306,0.004014819860458374,0.02777201682329178,0.005083739757537842,0.37712755583275476,-0.05100390221310955,-0.021900163958753088,0.9244964474823808,-0.07904549100831519,0.07811059687375761,2.370039456902454
1763354780551627776,5.918627977371216,0.022916587069630623,0.04190574213862419,0.008189056068658829,0.07821162045001984,0.07923626154661179,-0.9937829375267029,0.005269207060337067,0.029894597828388214,8.58306884765625e-06,0.37708518913011563,-0.05125200441893719,-0.02194892518731952,0.9244989317393307,-0.07931940708717156,0.07853901909936713,2.370147764099456
1763354780561673984,5.928673982620239,0.02747991308569908,0.040600258857011795,0.004921889863908291,0.07860065251588821,0.07988335192203522,-0.9937004446983337,0.004483446478843689,0.025402292609214783,0.00554126501083374,0.37707711006283584,-0.051555841440148936,-0.022175871413407076,0.9244799365862719,-0.07996855729757081,0.07893459454698175,2.370189798812806
1763354780571720960,5.938720941543579,0.023825256153941154,0.036738939583301544,-0.0036657394375652075,0.07895154505968094,0.08066503703594208,-0.9936094880104065,0.0016148611903190613,0.01789148896932602,0.009066641330718994,0.3770998327574917,-0.05186833484104257,-0.022470728735505516,0.9244460944407057,-0.08075277195543185,0.07929273008745784,2.3701675899192916
1763354780581766912,5.9487669467926025,0.02520437352359295,0.04848814010620117,-0.01059865765273571,0.07929565757513046,0.08127231895923615,-0.9935325980186462,-0.0008197054266929626,0.009700581431388855,0.01193469762802124,0.377152168440629,-0.052145246475957044,-0.022684314908018862,0.9244038703236754,-0.08136205940351117,0.07964301356336301,2.3700769550860548
1763354780591812864,5.958812952041626,0.022960660979151726,0.05124478042125702,-0.007158120162785053,0.07963187992572784,0.08166579902172089,-0.9934734106063843,-0.0031090527772903442,0.006545260548591614,0.008335471153259277,0.37721935221127484,-0.05237816167565954,-0.02279937647732744,0.9243605158259585,-0.08175684841468332,0.07998401212168182,2.3699493310495017
1763354780601859840,5.968859910964966,0.054353803396224976,0.038789376616477966,-0.0094174575060606,0.07986912131309509,0.0817665383219719,-0.9934461116790771,0.0011703073978424072,0.013112612068653107,0.007987737655639648,0.3772821596884104,-0.052509206677830114,-0.022797638434757628,0.924327478084118,-0.08185792830454118,0.08022348286766365,2.3698216881380265
1763354780611905792,5.978905916213989,0.07638560235500336,0.027278659865260124,-0.004776632878929377,0.0801539346575737,0.0815567672252655,-0.9934403896331787,0.0059056356549263,0.016923457384109497,0.005540609359741211,0.37733865814974604,-0.05260304388068203,-0.022643251586488937,0.9243027984524014,-0.08164744984995327,0.08050878610471526,2.3697013284541493
1763354780621951744,5.988951921463013,0.10397172719240189,0.02710765227675438,0.004737331997603178,0.08047868311405182,0.08127140253782272,-0.9934375286102295,0.006435371935367584,0.025234945118427277,0.005842924118041992,0.37737740528530256,-0.05270058654071845,-0.02244725610468667,0.9242863057178713,-0.0813611378456942,0.08083379335244337,2.3696188074007747
1763354780631998976,5.998999118804932,0.10508572310209274,0.026546789333224297,0.01564963534474373,0.08083414286375046,0.08085869997739792,-0.9934423565864563,0.004660852253437042,0.02343512326478958,0.00038510560989379883,0.3773690970033671,-0.052786997314976374,-0.022189083057914297,0.9242909707758379,-0.08094707228785328,0.08118886152648788,2.3696353408215147
1763354780642044928,6.009045124053955,0.08232079446315765,0.018757276237010956,0.011749258264899254,0.08113044500350952,0.08049451559782028,-0.9934477806091309,0.0050817131996154785,0.014964476227760315,-0.0021729469299316406,0.3773460732746857,-0.05285480562413244,-0.021965446784394597,0.924301874804813,-0.08058169401151062,0.08148470593363263,2.369683428329524
1763354780652091136,6.0190911293029785,0.046328965574502945,0.004847053904086351,0.0011141910217702389,0.08125413954257965,0.08031131327152252,-0.9934524893760681,0.006346568465232849,-0.001408107578754425,0.0022873282432556152,0.3773411317281672,-0.05287729537945471,-0.021857367546904507,0.9243051094913929,-0.08039789492186195,0.08160800915437838,2.369692430471815
1763354780662138112,6.029138088226318,0.008195564150810242,0.0045310696586966515,-0.0034265879075974226,0.08124059438705444,0.08034264296293259,-0.9934510588645935,0.004254400730133057,-0.01596580445766449,0.007199227809906006,0.37736901570418757,-0.05287762597831072,-0.021872863174215502,0.9242933596080921,-0.08042932623184022,0.0815945814611728,2.36963258714001
1763354780672184064,6.039184093475342,-0.011929146014153957,0.0069843740202486515,-0.003970937803387642,0.08119568973779678,0.08059141784906387,-0.9934346079826355,0.0006677135825157166,-0.018411844968795776,0.008388221263885498,0.3773954535860307,-0.05290478544722499,-0.021995200676023525,0.9242780952547625,-0.0806789112300976,0.08155102806704619,2.3695804228863464
1763354780682230016,6.049230098724365,-0.010295828804373741,0.004980345256626606,-0.0033314237371087074,0.08127748221158981,0.08106983453035355,-0.9933889508247375,0.0016540288925170898,-0.007217302918434143,0.006236910820007324,0.377421147583809,-0.053034614464942544,-0.02220007277941902,0.9242551895362211,-0.08115890151660946,0.08163654392125219,2.3695384189527573
1763354780692276992,6.059277057647705,-0.002915410790592432,0.0003048996441066265,0.004584289621561766,0.08142261952161789,0.0815620943903923,-0.9933367967605591,0.0036298707127571106,0.0046500638127326965,0.004918217658996582,0.377414636593281,-0.05319576985242786,-0.02240121603868881,0.9242437431230598,-0.08165279387222418,0.08178595341616603,2.3695681556069528
1763354780702322944,6.0693230628967285,0.005340654868632555,0.00705201830714941,0.005577736999839544,0.08161018788814545,0.08213908225297928,-0.9932738542556763,0.0017943531274795532,0.012785844504833221,0.0035582780838012695,0.37739398411862546,-0.053392461376465195,-0.022634439921544063,0.9242352392626471,-0.08223172603876296,0.08197868376831279,2.3696317996425704
1763354780712368896,6.079369068145752,0.004740378353744745,0.012767961248755455,0.001683663111180067,0.08182496577501297,0.08260314166545868,-0.9932177066802979,-0.00031251460313796997,0.008720718324184418,0.009651422500610352,0.37737887516466495,-0.05358042515221523,-0.022809837651419473,0.9242262055737729,-0.08269736754026294,0.08219808929556574,2.369681186261998
1763354780722415872,6.089416027069092,0.01819753274321556,0.01533531490713358,-0.0002729613333940506,0.08210206776857376,0.08278640359640121,-0.9931795597076416,-0.003610864281654358,0.0022813379764556885,0.011276543140411377,0.37739186967519295,-0.05374453786971584,-0.022841602570187924,0.9242105415538154,-0.08288125985753536,0.0824783485709605,2.36966437992402
1763354780732461824,6.099462032318115,0.031204942613840103,0.014019712805747986,-0.0045537264086306095,0.08239511400461197,0.08245259523391724,-0.9931830763816833,-0.002805270254611969,0.0034696459770202637,0.00920480489730835,0.37740845439839443,-0.05381756495590535,-0.022630366613362866,0.9242047480923431,-0.08254630424158911,0.0827711088833791,2.3696275385375483
1763354780742508032,6.109508037567139,0.03477860242128372,0.008208462968468666,0.002468319144099951,0.08260704576969147,0.08170422911643982,-0.9932273030281067,0.0018045678734779358,0.012183107435703278,0.0055564045906066895,0.3774158594926028,-0.05377360765586859,-0.022242798539490464,0.9242137750065981,-0.08179540433693774,0.08297935505548357,2.369598137572419
1763354780752555008,6.1195549964904785,0.030001958832144737,-0.002483330201357603,0.0020502032712101936,0.08265908062458038,0.08094494044780731,-0.9932851791381836,0.006223365664482117,0.018710210919380188,-0.00013828277587890625,0.3774107743191999,-0.05365294255728636,-0.021881177280358786,0.9242313878660267,-0.08103359351899712,0.08302657213747654,2.3695910091037535
1763354780762600960,6.129601001739502,0.023772725835442543,-0.013909788802266121,-0.0064933947287499905,0.08258421719074249,0.08053849637508392,-0.9933243989944458,0.008434459567070007,0.011822961270809174,0.0013047456741333008,0.37741677916352184,-0.053540799735961805,-0.021706548244587422,0.9242395396427221,-0.08062581595789106,0.08294845408213275,2.3695659020269106
1763354780772646912,6.139647006988525,0.025812441483139992,-0.013769440352916718,-0.0036467420868575573,0.08250506222248077,0.0804423913359642,-0.9933387637138367,0.004973568022251129,-0.0005016028881072998,0.005301713943481445,0.3774474082180443,-0.05348639586226264,-0.021675203448036324,0.9242309097409523,-0.08052939941836376,0.08286812044619747,2.3694953004271833
1763354780782693888,6.149693965911865,0.03156060725450516,-0.001702391542494297,-0.0018937611021101475,0.0824342593550682,0.08050701022148132,-0.9933394193649292,0.0008176937699317932,-0.0032059848308563232,0.007362246513366699,0.37747293280910793,-0.05346638979005712,-0.021717095685975265,0.9242207008353718,-0.08059422940667221,0.08279727516896424,2.369440112896588
1763354780792739840,6.159739971160889,0.03328260779380798,0.002132826717570424,0.004030174110084772,0.08242262899875641,0.0804598480463028,-0.9933441877365112,-0.0027870163321495056,0.005828604102134705,0.010510385036468506,0.3774907086705557,-0.0534524084968254,-0.021696402482308367,0.9242147361417866,-0.08054691211338069,0.08278524981906991,2.3694001799560773
1763354780802785792,6.169785976409912,0.035403214395046234,0.0019765659235417843,0.0022986759431660175,0.08237231522798538,0.08024846017360687,-0.993365466594696,-0.002095833420753479,0.01044977456331253,0.00703740119934082,0.37748865665148496,-0.05338866518023455,-0.021608042183260037,0.9242214069486389,-0.08033484273712575,0.0827331814050806,2.3693982454538403
1763354780812832768,6.179832935333252,0.019957946613430977,-0.0021105874329805374,-0.0007003098726272583,0.08230287581682205,0.08012418448925018,-0.9933812618255615,0.000277690589427948,0.006530478596687317,0.0045659542083740234,0.37750069705768696,-0.053332975620555556,-0.021562877416347905,0.924220690645536,-0.08021016583125098,0.08266245070080384,2.3693672732589377
1763354780822878720,6.189878940582275,0.00014489423483610153,-0.00043286243453621864,-0.0014251330867409706,0.08233906328678131,0.08034522831439972,-0.9933604001998901,0.002454027533531189,-2.2962689399719238e-05,0.005018115043640137,0.37751276913629744,-0.05339222208188226,-0.02165781247013854,0.9242101428027198,-0.0804319260536222,0.08270035970256316,2.369347638421442
1763354780832924928,6.199924945831299,-0.003614424029365182,0.001990613993257284,-0.010699058882892132,0.08249658346176147,0.0808069184422493,-0.9933099150657654,0.0007858872413635254,-0.007015414535999298,0.00804990530014038,0.37754295753506,-0.05355419379452205,-0.021840291352155566,0.9241841974233875,-0.08089512272771801,0.082862041278679,2.3692978126729614
1763354780842971904,6.209971904754639,-0.00025960663333535194,0.0011309124529361725,-0.008167014457285404,0.08272676169872284,0.08112210780382156,-0.9932650923728943,-0.0018704384565353394,-0.005850501358509064,0.003869950771331787,0.37758898496211035,-0.05372241004145652,-0.021940153355238724,0.9241532737848903,-0.08121134886332793,0.08309591213110398,2.369211682444825
1763354780853017856,6.220017910003662,0.018385982140898705,0.006939266808331013,-0.006045008078217506,0.08288727700710297,0.0810081735253334,-0.9932609796524048,-0.0008255094289779663,0.0036323294043540955,0.005056023597717285,0.3776178798297718,-0.05377600067319041,-0.021855240134175922,0.9241402543343872,-0.0810970360539947,0.08325673907488151,2.369149867549538
1763354780863063808,6.2300639152526855,0.0397760272026062,0.01803499460220337,-0.0034313814248889685,0.08302555233240128,0.08064913004636765,-0.9932786226272583,-0.0010095685720443726,0.012933015823364258,0.007103145122528076,0.3776453645675205,-0.05377245830218041,-0.021660983726463457,0.9241337960657762,-0.0807368178236972,0.08339351315600914,2.3690844991435083
1763354780873111040,6.2401111125946045,0.041173651814460754,0.012843694537878036,-0.0009770123288035393,0.08310995250940323,0.08038357645273209,-0.9932931065559387,-0.0006514564156532288,0.017059050500392914,0.004798233509063721,0.377671936394725,-0.05376166587113471,-0.021520328981005938,0.9241268804402222,-0.0804703932264079,0.08347668447699927,2.369022238983718
1763354780883156992,6.250157117843628,0.03424191474914551,0.01189008355140686,-0.002552360761910677,0.08317676931619644,0.08025000989437103,-0.993298351764679,0.0018146857619285583,0.012599721550941467,0.008938610553741455,0.377688532687907,-0.05376764066638556,-0.02144478216725772,0.924121509331728,-0.08033639800463588,0.08354304907535733,2.368984461681544
1763354780893202944,6.260203123092651,0.02226248010993004,0.009630657732486725,-0.0026018957141786814,0.08328672498464584,0.08011305332183838,-0.9933001399040222,0.00034669041633605957,-0.0008131340146064758,0.005507230758666992,0.37771032080961575,-0.05379313745050502,-0.021359184988558266,0.9241131646589164,-0.08019899854645683,0.08365281850498679,2.3689364711053678
1763354780903249920,6.270250082015991,0.011363126337528229,0.008129267022013664,-0.006823272444307804,0.08341804146766663,0.07995625585317612,-0.9933018088340759,0.000673145055770874,-0.00961323082447052,0.006332814693450928,0.37773751902706587,-0.05382491020003938,-0.021260022641600075,0.9241024226562335,-0.08004169238407761,0.0837839640086014,2.368876479524281
1763354780913295872,6.280296087265015,0.004991514142602682,-7.060635834932327e-05,-0.000952600035816431,0.08348668366670609,0.07977073639631271,-0.9933109283447266,0.003549449145793915,-0.005902938544750214,0.0067844390869140625,0.37775642234828727,-0.05382186699494312,-0.021159909931303685,0.9240971207263928,-0.0798555804926421,0.08385181131582778,2.3688322437973928
1763354780923342080,6.290342092514038,0.002459181472659111,-0.006211123429238796,0.004390588961541653,0.08340156823396683,0.07963500916957855,-0.9933289885520935,0.004305951297283173,0.0012518316507339478,0.002331674098968506,0.37775296654828694,-0.053756322938197945,-0.02111332376193964,0.9241034583424054,-0.07971942373972322,0.08376520993751711,2.368834332428425
1763354780933389056,6.300389051437378,-0.00431536789983511,-0.007322460412979126,0.013516442850232124,0.08333303779363632,0.07975342124700546,-0.9933252334594727,0.002924896776676178,0.0036816447973251343,0.0026025772094726562,0.3777127765227784,-0.05374612848404839,-0.0211835401835885,0.9241188932755988,-0.07983820787168439,0.08369701807102188,2.3689228452793407
1763354780943435008,6.310435056686401,-0.033783312886953354,-0.0031449589878320694,0.01401028223335743,0.08328190445899963,0.08027763664722443,-0.9932872653007507,0.00041253864765167236,-0.0003215894103050232,0.008866548538208008,0.3776400347551164,-0.05382066512119727,-0.02144049186333583,0.9241383683128364,-0.08036411390620155,0.08364908322753338,2.369092641467172
1763354780953480960,6.320481061935425,-0.05109119415283203,-0.0049375323578715324,0.010262150317430496,0.08326596766710281,0.0811135321855545,-0.9932206869125366,-0.0029437094926834106,-0.012113295495510101,0.010249555110931396,0.37757562555873864,-0.05397116977690767,-0.02183481190211589,0.9241466472575822,-0.08120274365630527,0.08363872584445768,2.369253058870949
1763354780963527936,6.330528020858765,-0.06463170051574707,-0.008975750766694546,0.010343287140130997,0.08325999230146408,0.0819944366812706,-0.9931488633155823,-0.0035480856895446777,-0.0214780792593956,0.01306164264678955,0.37751572976028586,-0.054134962807601814,-0.02224787977257972,0.9241517647257752,-0.08208658972154531,0.08363877587103118,2.369405169732538
1763354780973573888,6.340574026107788,-0.05506110191345215,-0.0036664726212620735,0.00643589673563838,0.08322510868310928,0.08252836018800735,-0.9931075572967529,-0.0008276551961898804,-0.013879068195819855,0.012791454792022705,0.3774684277066731,-0.054219423317413785,-0.02250482753733128,0.924159883010862,-0.08262232928660279,0.08360735542008906,2.369520165619923
1763354780983619840,6.3506200313568115,-0.04784134030342102,-0.017078351229429245,0.014679888263344765,0.08316755294799805,0.08277001976966858,-0.9930922985076904,0.003807544708251953,0.008721679449081421,-0.0011856555938720703,0.37740238537794374,-0.05423712870822065,-0.02263165931623367,0.9241827356990229,-0.08286482155717034,0.08355108371356361,2.369667812642949
1763354780993666816,6.360666990280151,-0.031871695071458817,-0.03383895382285118,0.01676834002137184,0.08305367082357407,0.08297298848628998,-0.9930848479270935,0.010330110788345337,0.019596584141254425,-0.004565238952636719,0.3773064621997899,-0.05422052120971998,-0.02275296657168133,0.9242197523888027,-0.08306848931844778,0.08343782789416075,2.369877393110209
1763354781003712768,6.370712995529175,-0.019220314919948578,-0.028403475880622864,0.012480296194553375,0.08285319060087204,0.08316469192504883,-0.9930855631828308,0.008958935737609863,0.013103000819683075,-0.001421213150024414,0.37723255008892126,-0.05416200536819411,-0.022884145818664412,0.9242501341524305,-0.08326085833955485,0.08323729276031758,2.370037195561029
1763354781013758976,6.380759000778198,-0.020812619477510452,-0.018792927265167236,0.016881169751286507,0.08270058780908585,0.08337782323360443,-0.9930804371833801,0.00021567195653915405,0.008541114628314972,0.005653679370880127,0.37714890384538136,-0.05412957991013139,-0.023016764785981098,0.9242828664871303,-0.08347473478354797,0.08308511881679932,2.3702196764807613
1763354781023805952,6.390805959701538,-0.012519502080976963,0.0029927617870271206,0.013276580721139908,0.08271028101444244,0.08346769958734512,-0.9930720925331116,-0.009254470467567444,0.0005777105689048767,0.012511789798736572,0.3770760336657864,-0.05414939709898523,-0.023060880135268986,0.9243103050040794,-0.08356492109608252,0.08309550490443397,2.3703797676262806
1763354781033851904,6.4008519649505615,-0.02565607614815235,-0.006019641179591417,0.012664586305618286,0.08267833292484283,0.08332128822803497,-0.9930870532989502,-0.0054078251123428345,0.0037758871912956238,0.0029289722442626953,0.37701845852425936,-0.05410520168613969,-0.02300239036552209,0.9243379830944317,-0.08341799694156121,0.08306231168754027,2.3705001994937387
1763354781043897856,6.410897970199585,-0.03682617098093033,-0.01902092806994915,0.016361940652132034,0.08253692835569382,0.08311854302883148,-0.9931157827377319,0.003537900745868683,0.007060900330543518,0.0029577016830444336,0.3769261415369608,-0.05399852443500221,-0.022940500630627934,0.9243833720452547,-0.08321455110692844,0.08291850915710132,2.3706912862503757
1763354781053944832,6.420944929122925,-0.033082567155361176,-0.01878577098250389,0.007312254514545202,0.08238309621810913,0.08313620835542679,-0.9931271076202393,0.003325521945953369,-0.0020662620663642883,0.010674715042114258,0.3768556712176762,-0.05392859056416972,-0.022981892273902727,0.9244151527119775,-0.08323227616971593,0.08276373874243546,2.370840333477364
1763354781063990784,6.430990934371948,-0.03507348150014877,-0.017583420500159264,0.0012314580380916595,0.08232235908508301,0.08366719633340836,-0.9930875301361084,-0.0007641315460205078,-0.008731283247470856,0.009719610214233398,0.3768300648348035,-0.05400079999119149,-0.023241157198953605,0.9244149184798198,-0.08376511808938007,0.0827062721696394,2.370907381908921
1763354781074036736,6.441036939620972,-0.022492174059152603,-0.012297578155994415,0.004805154167115688,0.08241932839155197,0.08437839150428772,-0.9930192828178406,-0.0007695481181144714,0.0024593770503997803,0.004387080669403076,0.3768042484431061,-0.05418067237395463,-0.02355422317769093,0.9244070454335267,-0.08447884193152562,0.08280891347083588,2.3709833204465953
1763354781084083712,6.4510838985443115,-0.005969690158963203,-0.012336960062384605,0.008706863969564438,0.082516148686409,0.08476176857948303,-0.9929786324501038,-0.0010342150926589966,0.014527179300785065,0.0008063912391662598,0.37675567245236713,-0.05429746959100172,-0.02371660341379808,0.9244158062068587,-0.08486359097298625,0.08290912882781284,2.3711002565071557
1763354781094129920,6.461129903793335,0.004983891732990742,-0.012371314689517021,0.009403279051184654,0.08242034167051315,0.08492664247751236,-0.9929724931716919,0.001182563602924347,0.01480480283498764,0.0038367509841918945,0.3767117975318922,-0.054283166367787586,-0.02381377176504918,0.9244320357142144,-0.08502906755464797,0.08281381121471353,2.371196755206725
1763354781104175872,6.471175909042358,0.004779093898832798,-0.021825270727276802,0.004585443064570427,0.08206158131361008,0.08488496392965317,-0.9930057525634766,0.004562556743621826,0.011504806578159332,0.0023746490478515625,0.37667903244003337,-0.05410750158843326,-0.023864152167617916,0.9244544013517209,-0.08498723482197335,0.08245222906561787,2.371257339392846
1763354781114223104,6.481223106384277,0.011026337742805481,-0.02188252843916416,0.0008309190161526203,0.08173561096191406,0.08486203849315643,-0.9930346012115479,0.0025844648480415344,0.007346823811531067,0.0062639713287353516,0.37665966420508523,-0.05395101100682081,-0.02391624410560628,0.9244699643480456,-0.08496422614665214,0.08212380134073193,2.3712899412321837
1763354781124269056,6.491269111633301,0.029402680695056915,-0.008455934002995491,0.007804051507264376,0.08170018345117569,0.08478110283613205,-0.9930444359779358,-0.0022476762533187866,0.006649568676948547,0.006090700626373291,0.37664129632233284,-0.05391864345887319,-0.023886461887953476,0.9244802404322633,-0.08488299494721088,0.08208755935205925,2.37132707584805
1763354781134315008,6.501315116882324,0.04254484921693802,-0.005825530271977186,0.017093423753976822,0.08175361901521683,0.08434630185365677,-0.9930770397186279,-0.0031098276376724243,0.008701786398887634,0.004811108112335205,0.3765913377967826,-0.05385946872342268,-0.0236775768790089,0.9245092928062272,-0.0844466307957838,0.08213831807705435,2.3714257691676677
1763354781144361984,6.511362075805664,0.03441578149795532,-0.012373944744467735,0.016892798244953156,0.08170346915721893,0.08373548835515976,-0.9931328892707825,-0.000999733805656433,0.009816139936447144,0.00828486680984497,0.37651446218197987,-0.05371796170269255,-0.023408168074348968,0.9245557208033799,-0.08383365412499447,0.08208356734328612,2.371575992624214
1763354781154407936,6.5214080810546875,0.02465423010289669,-0.010394683107733727,0.009082812815904617,0.08161601424217224,0.08351146429777145,-0.9931589365005493,0.0008729994297027588,0.004241831600666046,0.009989380836486816,0.3764732002888481,-0.05363362212687393,-0.02332315471020273,0.924579552766139,-0.08360884300538109,0.08199395796191693,2.371657538826848
1763354781164453888,6.531454086303711,0.006498697213828564,-0.009059140458703041,0.008147243410348892,0.081517294049263,0.08371264487504959,-0.9931501150131226,-0.0002337247133255005,-0.006686277687549591,0.005723357200622559,0.3764412042016366,-0.053625153222302435,-0.023436981796252997,0.9245902516497373,-0.08381072759890679,0.08189594986579238,2.3717292453288734
1763354781174500864,6.541501045227051,0.004318101331591606,-0.0003106566146016121,-0.00042280834168195724,0.08155976980924606,0.08402437716722488,-0.9931203126907349,-0.0017410442233085632,-0.008691728115081787,0.006898999214172363,0.3764271209734401,-0.05370384120643242,-0.023574398005962043,0.9245879864587718,-0.08412356049051445,0.08194087583299453,2.3717684786086024
1763354781184547072,6.551547050476074,0.004781824070960283,-0.0025645559653639793,-0.003299910109490156,0.08165982365608215,0.08426501601934433,-0.9930917024612427,-0.0018563568592071533,-0.00035693496465682983,0.004215359687805176,0.3764392316417987,-0.05379647949236021,-0.023666440415458602,0.9245751650461177,-0.08436505884070904,0.0820433036596966,2.3717503715756467
1763354781194593024,6.561593055725098,0.00756083196029067,0.001556419301778078,0.0030783601105213165,0.08172508329153061,0.08438343554735184,-0.9930762648582458,-0.0006246194243431091,0.007871203124523163,0.00694650411605835,0.37643556333134753,-0.05384926633474731,-0.02370926987482338,0.9245725427650208,-0.08448390288864423,0.08210984234759529,2.3717629705595633
1763354781204640000,6.5716400146484375,0.003710667137056589,0.007945908233523369,0.005538233555853367,0.08172700554132462,0.08448450267314911,-0.9930675029754639,-0.0023050084710121155,0.006549432873725891,0.008051633834838867,0.37641992691541704,-0.05386898381617038,-0.02375670389834572,0.924576521905705,-0.08458532660579708,0.08211248346647769,2.371799250317354
1763354781214685952,6.581686019897461,-0.007844788953661919,0.015733789652585983,-0.00032791122794151306,0.08178171515464783,0.08470217138528824,-0.9930444359779358,-0.005899764597415924,-0.0028540268540382385,0.012011110782623291,0.3764129145220662,-0.05393565980551826,-0.023847768397145846,0.9245732322641116,-0.08480378485669288,0.08216910957858369,2.371821285260543
1763354781224731904,6.591732025146484,-0.01335873082280159,0.013237209990620613,-0.0009589027613401413,0.0819164291024208,0.08502398431301117,-0.9930058717727661,-0.006064988672733307,-0.01004229485988617,0.010965466499328613,0.37642886352559035,-0.0540599615110696,-0.02397070039978017,0.9245562774378896,-0.08512675832488624,0.08230703096734347,2.3717980366893667
1763354781234778880,6.601778984069824,-0.022420668974518776,0.0006577689200639725,0.006257198750972748,0.08201482892036438,0.08527488261461258,-0.992976188659668,-0.0005329027771949768,-0.009652331471443176,0.005076467990875244,0.37641727544450054,-0.05415317561794447,-0.024069200984764182,0.9245529036883944,-0.0853785710201946,0.0824079008148781,2.3718315952292595
1763354781244824832,6.611824989318848,-0.03955351561307907,0.0012622391805052757,0.008380092680454254,0.08203486353158951,0.08539288491010666,-0.9929644465446472,0.002941332757472992,-0.002568177878856659,0.0005328059196472168,0.3763607678740378,-0.05418347533240702,-0.024123477309539076,0.9245727271368586,-0.0854970092413307,0.0824289214268756,2.371957232689939
1763354781254870784,6.621870994567871,-0.05411913990974426,-0.01203625462949276,0.012227563187479973,0.08195041865110397,0.08562548458576202,-0.9929513335227966,0.004673726856708527,-0.0004051476716995239,-0.002181112766265869,0.3762965865603578,-0.054186748496040625,-0.024251101197746556,0.9245953588688075,-0.08573046535134678,0.08234552986084324,2.372099539857217
1763354781264917760,6.631917953491211,-0.06612014770507812,-0.015253886580467224,0.014614997431635857,0.08179550617933273,0.08617271482944489,-0.9929168224334717,0.004279330372810364,-0.007849350571632385,0.00497126579284668,0.37621512406502705,-0.05421660008718855,-0.024539025629364743,0.9246190985840543,-0.0862797206429845,0.0821934157616891,2.372284653552527
1763354781274963968,6.641963958740234,-0.08805713802576065,-0.0016363454051315784,0.0092798862606287,0.08168011903762817,0.08709226548671722,-0.9928460717201233,6.121397018432617e-05,-0.015421733260154724,0.010836184024810791,0.3761386393243148,-0.054335729718225846,-0.02499198043828121,0.9246311478350107,-0.087202739547969,0.08208381075582066,2.3724690046224906
1763354781285010688,6.652010917663574,-0.10022076219320297,0.014110560528934002,0.014051739126443863,0.08172018080949783,0.08813488483428955,-0.9927507638931274,-0.009332485496997833,-0.01435863971710205,0.01620352268218994,0.3760624503026577,-0.054550558237301705,-0.025472743275201618,0.9246363947210009,-0.08824938663822285,0.08213173799671061,2.372659583921453
1763354781295056896,6.662056922912598,-0.10557584464550018,0.017815284430980682,0.0194395799189806,0.08178935199975967,0.08903049677610397,-0.9926651120185852,-0.009508468210697174,-0.011271707713603973,0.009510815143585205,0.3759602720242084,-0.054750216224727755,-0.025881382496758584,0.9246547362370141,-0.08914853535784267,0.08220800336701885,2.372903423285049
1763354781305102848,6.672102928161621,-0.11136458814144135,0.003952298779040575,0.019340598955750465,0.08178876340389252,0.08980181813240051,-0.9925957322120667,-0.001573309302330017,-0.0023079216480255127,0.00706106424331665,0.3758364144464174,-0.054893089685970696,-0.026246829242549143,0.9246864132762118,-0.08992295604646612,0.08221313717894749,2.373189498078887
1763354781315150080,6.68215012550354,-0.11158083379268646,-0.012636266648769379,0.02646695263683796,0.08176250010728836,0.09058334678411484,-0.9925268292427063,0.0053346529603004456,0.0024037063121795654,0.0006293058395385742,0.37569872799031545,-0.055025491611596054,-0.026622726796525636,0.9247237014988043,-0.09070768490254323,0.08219253883368646,2.3735045597151765
1763354781325196032,6.6921961307525635,-0.11092114448547363,-0.004385026637464762,0.023842230439186096,0.08178288489580154,0.09150352329015732,-0.9924407601356506,0.004124097526073456,-0.0005611404776573181,0.0016265511512756348,0.37554830208113243,-0.05520548627572831,-0.027055013155426858,0.9247614542827468,-0.09163169497120188,0.08222003305895459,2.3738515290569047
1763354781335241728,6.702241897583008,-0.1066206693649292,-0.015635285526514053,0.02818424627184868,0.08181678503751755,0.09244644641876221,-0.9923505783081055,0.0018929317593574524,-0.000634312629699707,0.0010175704956054688,0.3753842160004622,-0.0553955760307346,-0.027496209505249787,0.9248037623962599,-0.09257863464868318,0.08226140740088272,2.374229107021277
1763354781345288960,6.712289094924927,-0.09450162202119827,-0.028019580990076065,0.03524259850382805,0.08174010366201401,0.09309354424476624,-0.9922963976860046,0.005280770361423492,0.0030673444271087646,0.0014669299125671387,0.375199571302581,-0.055477256580774535,-0.027822174095378793,0.9248640204761378,-0.09322853290015615,0.08218911773696423,2.37464075135933
1763354781355334912,6.72233510017395,-0.09942474216222763,-0.03286387026309967,0.036298543214797974,0.08148159086704254,0.09358076751232147,-0.9922718405723572,0.005600325763225555,0.006608441472053528,0.0038837790489196777,0.37500158719375476,-0.055443405026573515,-0.02810894180112717,0.9249376258613523,-0.0937178933813033,0.08193236639701387,2.3750718782383657
1763354781365381120,6.732381105422974,-0.1060178205370903,-0.02510938048362732,0.03432691469788551,0.08105237782001495,0.09414046257734299,-0.9922540187835693,0.0012382715940475464,0.004736490547657013,0.008657217025756836,0.3747984026104705,-0.05534353373342239,-0.02846176191381344,0.9250152147654462,-0.09428007134495314,0.08150414881596216,2.3755105383395394
1763354781375427840,6.7424280643463135,-0.10966075956821442,-0.021046727895736694,0.031280793249607086,0.08066962659358978,0.0948474109172821,-0.9922178983688354,-0.0023767799139022827,-0.0045153796672821045,0.00950610637664795,0.37460812451973824,-0.05529348708979382,-0.02887344144169189,0.9250825306916691,-0.09499019872604754,0.08112389767516234,2.3759255117999727
1763354781385474048,6.752474069595337,-0.11136531829833984,-0.030416926369071007,0.02733239158987999,0.08044295012950897,0.09578284621238708,-0.9921464323997498,-0.0014787167310714722,-0.004382699728012085,0.007481515407562256,0.3744364601637793,-0.05535988481882866,-0.029360828520870873,0.925132700900166,-0.0959299093665382,0.08090274073647206,2.3763096725631425
1763354781395520000,6.76252007484436,-0.10225331783294678,-0.03483803942799568,0.02817155048251152,0.08028888702392578,0.09677134454250336,-0.9920629858970642,0.0026121139526367188,0.0009001642465591431,0.003919064998626709,0.37427360323541653,-0.055470292267492005,-0.029858755974351545,0.925176103246113,-0.09692302638905904,0.08075523527090939,2.3766780175758693
1763354781405566976,6.7725670337677,-0.08236060291528702,-0.04131002351641655,0.029414627701044083,0.08006356656551361,0.0975208580493927,-0.9920077919960022,0.004531159996986389,0.0088786780834198,0.004642069339752197,0.3740997769854248,-0.055501719168072554,-0.03025972246698169,0.9252314926286647,-0.0976760989175423,0.08053404375227365,2.3770622370673395
1763354781415612928,6.782613039016724,-0.06632304191589355,-0.029466677457094193,0.026916582137346268,0.07983170449733734,0.09808102995157242,-0.9919712543487549,0.0035270527005195618,0.014238908886909485,0.003949463367462158,0.37395073162046927,-0.05549493008699211,-0.030572464530109065,0.9252818082299054,-0.09823896937207534,0.08030477098027977,2.377388311967555
1763354781425659392,6.792659521102905,-0.049799662083387375,-0.01697918400168419,0.01529330387711525,0.07975663244724274,0.09859611093997955,-0.9919262528419495,0.002732381224632263,0.018393024802207947,0.0015392899513244629,0.3738226777663842,-0.055553251748773014,-0.030833599955238974,0.925321417591997,-0.09875655968525592,0.08023319788263862,2.3776733263092944
1763354781435706624,6.802706718444824,-0.03010665252804756,0.011312376707792282,0.0038768653757870197,0.0799197107553482,0.09902182221412659,-0.9918707013130188,-0.006433382630348206,0.018318265676498413,0.006824314594268799,0.3737645791577429,-0.055707908360920974,-0.031004367878351573,0.9253298488670394,-0.09918436161123227,0.08040103134351825,2.3778131258994457
1763354781445752576,6.812752723693848,-0.00903319101780653,0.024582775309681892,0.003476591780781746,0.08019384741783142,0.09920214116573334,-0.991830587387085,-0.011254630982875824,0.021159186959266663,0.007776021957397461,0.3737395001495259,-0.05586894298735235,-0.031038297334003,0.9253291361663717,-0.09936557730321895,0.08067887478819127,2.3778803431283397
1763354781455798528,6.822798728942871,0.0008391467854380608,0.03360449895262718,0.0008429917506873608,0.08049759268760681,0.09905225038528442,-0.9918209314346313,-0.009437419474124908,0.01769273728132248,0.012618720531463623,0.3737280066253544,-0.055981708483591235,-0.030912382785694737,0.9253311703913106,-0.09921493932769544,0.08098390976084219,2.377912292399243
1763354781465845504,6.832845687866211,0.003964133560657501,0.040768902748823166,0.0006541740149259567,0.08087001740932465,0.09885711222887039,-0.991810142993927,-0.007887221872806549,0.009175114333629608,0.011707603931427002,0.37373194957883993,-0.05611842810574733,-0.030751633123406088,0.9253266287962175,-0.099018838632844,0.08135781955933859,2.377912119899664
1763354781475891712,6.842891693115234,-0.0040549105033278465,0.040172889828681946,0.0032438323833048344,0.0813182145357132,0.09881778806447983,-0.9917774200439453,-0.004597023129463196,-0.003496132791042328,0.011049270629882812,0.3737189940244921,-0.05631939581683123,-0.03065012199740283,0.9253231079679413,-0.09897932424155108,0.08180940201446045,2.377954456862423
1763354781485937664,6.852937698364258,-0.01707720197737217,0.042904727160930634,-0.005465060006827116,0.08184019476175308,0.09908365458250046,-0.9917079210281372,-0.005683586001396179,-0.006417021155357361,0.010995030403137207,0.37373687034507524,-0.05661357630820368,-0.030674736987190015,0.9252971257702609,-0.09924650085876228,0.0823379207681891,2.3779389980087173
1763354781495984640,6.862984657287598,-0.02610824815928936,0.02649805322289467,-0.01127714291214943,0.08223775029182434,0.09960795193910599,-0.9916225075721741,-0.0010152235627174377,0.0020003244280815125,0.0027614831924438477,0.3737851117497155,-0.05689974844506637,-0.030840914576620415,0.9252545118290948,-0.09977340225344956,0.08274316422122337,2.377859326038938
1763354781506030592,6.873030662536621,-0.03931516408920288,0.018792230635881424,-0.013505853712558746,0.08243979513645172,0.10038287192583084,-0.9915276169776917,0.003009423613548279,0.004261910915374756,0.00687795877456665,0.37383294544475854,-0.05714232157002238,-0.031160239604689517,0.9252095766061098,-0.10055222638247874,0.08295342984702954,2.377779669097291
1763354781516076544,6.8830766677856445,-0.016896408051252365,0.019038306549191475,-0.014832640066742897,0.08242703229188919,0.10109326988458633,-0.9914564490318298,0.0030374452471733093,0.0015220865607261658,-0.005171358585357666,0.37389938691202385,-0.0572732576394901,-0.031488706056378456,0.9251634410680819,-0.10126626089279807,0.08294656580235302,2.3776508296133056
1763354781526123520,6.893123626708984,0.013759906403720379,-0.003317465540021658,-0.009443201124668121,0.08218090981245041,0.10158152878284454,-0.9914270043373108,0.005969114601612091,0.0076408907771110535,-0.003766477108001709,0.37398374006510565,-0.05725399558880712,-0.03175658538292095,0.9251214954692462,-0.10175704257862316,0.08270246957984333,2.3774706884790344
1763354781536169472,6.903169631958008,0.04941404238343239,-0.01861945539712906,-0.0007011089473962784,0.08183155208826065,0.10163567960262299,-0.9914503693580627,0.01101817935705185,0.020663514733314514,-0.0009965300559997559,0.37402872874448384,-0.05710300901762028,-0.031844523933805595,0.9251095862625821,-0.10181147844816561,0.08235055026486277,2.3773624035533008
1763354781546216448,6.913216590881348,0.07353455573320389,-0.021593406796455383,0.0019398592412471771,0.08144372701644897,0.10120037943124771,-0.9915267825126648,0.010582022368907928,0.02674456685781479,0.0008651614189147949,0.37404304278656103,-0.05684024273607519,-0.03171410254540708,0.9251245265733539,-0.101373924808248,0.0819557261435021,2.3773089770603866
1763354781556262400,6.923262596130371,0.08123615384101868,-0.019123325124382973,0.004882652312517166,0.08116146922111511,0.10033684223890305,-0.9916377067565918,0.004745513200759888,0.016575999557971954,0.0018000602722167969,0.3740541645750019,-0.05654539203618625,-0.0313650600316983,0.9251499142116208,-0.10050596783765246,0.08166386213589978,2.377256896476
1763354781566308608,6.9333086013793945,0.08074723184108734,-0.02473330870270729,0.004036122467368841,0.08085065335035324,0.09938858449459076,-0.9917585849761963,0.002248711884021759,0.005958095192909241,2.8848648071289062e-05,0.37405479936505825,-0.05622085125462237,-0.03098266371536518,0.9251823638602458,-0.09955294649120708,0.08134263257352443,2.377225086020811
1763354781576355584,6.943355560302734,0.07178223133087158,-0.027592476457357407,0.006894226651638746,0.08059974759817123,0.09868473559617996,-0.9918493032455444,0.004010237753391266,0.002023272216320038,0.0023320913314819336,0.3740460507952934,-0.05597027113125459,-0.030703188184518317,0.9252104261848496,-0.09884561993274839,0.08108392153792911,2.377220768361215
1763354781586401536,6.953401565551758,0.07428862899541855,-0.011431451886892319,-0.0037397751584649086,0.0805242583155632,0.09809628874063492,-0.9919137954711914,0.0001794770359992981,0.0018792971968650818,0.006516456604003906,0.37406225163543055,-0.05582413589168596,-0.030442926208007023,0.9252212585928123,-0.09825430231029969,0.08100306647444577,2.37717071856337
1763354781596447488,6.963447570800781,0.08796049654483795,-0.001144725363701582,-0.0010212203487753868,0.08056282252073288,0.09738925844430923,-0.9919803142547607,-0.00446724146604538,0.007682770490646362,0.006827116012573242,0.3740962925527429,-0.05570924525182765,-0.030105098156330817,0.925225534322235,-0.09754386686197604,0.08103627972255088,2.377083526587965
1763354781606494464,6.973494529724121,0.07984824478626251,0.0011783502995967865,0.006931511219590902,0.0807267427444458,0.0967956930398941,-0.9920250773429871,-0.005684025585651398,0.011907920241355896,0.010350942611694336,0.3740982299388776,-0.055673211943755636,-0.029798419846039915,0.9252368397426382,-0.0969474855963738,0.08119679147822965,2.377071974427536
1763354781616540416,6.9835405349731445,0.07659279555082321,0.0025544054806232452,0.006675580982118845,0.08102133125066757,0.09656336158514023,-0.9920237064361572,-0.002331763505935669,0.005166977643966675,0.002903282642364502,0.37408839698626273,-0.05576612238754875,-0.029635781577842444,0.9252403776382264,-0.0967140625761754,0.08149190266093256,2.3770976177176517
1763354781626586368,6.993586540222168,0.07214958220720291,0.004625013098120689,0.008812502026557922,0.08131077885627747,0.0965382307767868,-0.9920024871826172,-0.002316027879714966,-0.004344619810581207,0.0028057098388671875,0.37406981936949657,-0.05589560920610756,-0.029570911048945516,0.9252421767266195,-0.09668881155931379,0.08178347993961527,2.3771466163418666
1763354781636633600,7.003633737564087,0.07931987196207047,0.013426227495074272,0.006093414034694433,0.08152064681053162,0.0962451919913292,-0.9920137524604797,-0.001961328089237213,-0.008339308202266693,0.0030763745307922363,0.374057825524437,-0.05593748644073577,-0.029396097356622734,0.9252500951511019,-0.09639440439184149,0.08199269994672621,2.3771729204486536
1763354781646679552,7.01367974281311,0.08791469037532806,0.023379258811473846,0.008906511589884758,0.08174008876085281,0.09563007950782776,-0.9920551776885986,-0.0035693123936653137,-0.002307325601577759,0.008000612258911133,0.37405008404069795,-0.055922965138684326,-0.029069585006940794,0.9252643556527198,-0.0957764423990177,0.08220900343886578,2.377182911425382
1763354781656725760,7.023725748062134,0.10079134255647659,0.03567187860608101,0.017000922933220863,0.08210121840238571,0.09479933977127075,-0.9921050667762756,-0.006112448871135712,0.008502662181854248,0.010186731815338135,0.3740221537640869,-0.05593300474806024,-0.02861752750194301,0.9252891107258966,-0.09494190853645065,0.08256642580981348,2.37723597762468
1763354781666772480,7.033772706985474,0.10588224232196808,0.04789232835173607,0.017922909930348396,0.08251369744539261,0.0938667431473732,-0.9921595454216003,-0.008157610893249512,0.010182932019233704,0.008349120616912842,0.37398053010321136,-0.055947312680111654,-0.028109356842148426,0.9253205802661795,-0.09400513627354212,0.08297480634478166,2.377317319454747
1763354781676818688,7.043818712234497,0.1049080565571785,0.05116375535726547,0.014678023755550385,0.08288376778364182,0.09306549280881882,-0.9922041893005371,-0.005857400596141815,0.007795102894306183,0.007096767425537109,0.3739492696833779,-0.055967096877401805,-0.027669552483402953,0.9253453312626626,-0.09320036166748635,0.08334149561575642,2.3773777070352367
1763354781686864640,7.0538647174835205,0.0920250192284584,0.04591812193393707,0.005476537626236677,0.0832105502486229,0.09244771301746368,-0.9922345876693726,-0.0023389607667922974,-0.000284634530544281,0.009248137474060059,0.3739355310112571,-0.05600200554708814,-0.027322061476379455,0.9253590533160656,-0.09257990758809885,0.08366600119495325,2.3774026129864985
1763354781696911616,7.06391167640686,0.09652616083621979,0.061134226620197296,0.00890287198126316,0.08363495767116547,0.09171105176210403,-0.9922672510147095,-0.0012985318899154663,-0.006200797855854034,0.007098793983459473,0.3739451163057449,-0.05606059372888227,-0.026899617472242482,0.925364062195871,-0.09184010045249144,0.08408797372030437,2.3773770251269855
1763354781706957568,7.073957681655884,0.08424805104732513,0.06623484939336777,0.012752293609082699,0.08418640494346619,0.09084035456180573,-0.9923006892204285,-0.0047644078731536865,0.0009565204381942749,0.004706084728240967,0.3739382190040637,-0.05615254783309997,-0.026392078882278583,0.9253758359297823,-0.0909657530997867,0.08463693639826964,2.3773867827730095
1763354781717004544,7.084004640579224,0.0806378722190857,0.06009946018457413,0.015332895331084728,0.08474636822938919,0.08993827551603317,-0.9923352003097534,-0.005629546940326691,0.006222613155841827,0.012659907341003418,0.3739030144864383,-0.05624176292851986,-0.02587009913101661,0.9253993742469758,-0.09005997017205335,0.08519423413717837,2.377456574173961
1763354781727050496,7.094050645828247,0.051179613918066025,0.044343363493680954,0.015728553757071495,0.08514159917831421,0.08934462815523148,-0.9923549890518188,-0.001157216727733612,-0.004322655498981476,0.012542366981506348,0.3738512243344559,-0.05631216473733427,-0.025523326443454505,0.9254257080618925,-0.08946392239785611,0.08558791854576075,2.3775648406634655
1763354781737096448,7.1040966510772705,0.02264571003615856,0.03720582649111748,0.012161515653133392,0.08535493910312653,0.08932361751794815,-0.9923385381698608,0.0012234151363372803,-0.020796403288841248,0.011045873165130615,0.3738137376295188,-0.0564065580160707,-0.025475830153733284,0.9254364623237642,-0.0894428265165535,0.08580274555557195,2.377651352756625
1763354781747143424,7.11414361000061,-0.002417566254734993,0.029234984889626503,0.023564638569951057,0.08543410897254944,0.08955840766429901,-0.9923105835914612,0.0005644261837005615,-0.031651295721530914,0.004517614841461182,0.37375211553216187,-0.05648615354431386,-0.025573814745095087,0.9254537433878434,-0.0896785584279838,0.08588434901146297,2.3777925601988343
1763354781757189632,7.124189615249634,-0.01690969057381153,0.031231556087732315,0.022461824119091034,0.08556878566741943,0.08992009609937668,-0.9922662973403931,0.0032831430435180664,-0.02482610195875168,0.004702210426330566,0.3736533434647749,-0.05661456152101063,-0.025722634585342914,0.9254816970835062,-0.09004171513372554,0.08602288940833691,2.378019002200561
1763354781767235584,7.134235620498657,-0.012159076519310474,0.021696574985980988,0.026683645322918892,0.08575616031885147,0.09011135995388031,-0.9922327399253845,0.001600407063961029,-0.00820218026638031,0.0010218024253845215,0.3735483208996765,-0.0567351180751797,-0.025782803604076265,0.9255150172751019,-0.09023375937847265,0.08621322899958074,2.3782560169681273
1763354781777282560,7.144282579421997,-0.0093315988779068,0.016971593722701073,0.0364137701690197,0.08592759817838669,0.0901021957397461,-0.9922187328338623,0.004907973110675812,0.0032205581665039062,-0.0019981861114501953,0.373402034505681,-0.05680920978506622,-0.025755389187391765,0.9255702521829047,-0.09022455505950323,0.08638593844473746,2.3785766775678376
1763354781787328512,7.1543285846710205,-0.025006864219903946,0.0026796406600624323,0.046400442719459534,0.08593534678220749,0.09027573466300964,-0.9922022819519043,0.008379220962524414,0.0036268457770347595,-0.009064137935638428,0.3732025513475633,-0.05684003990014001,-0.025846825086855856,0.9256463301779637,-0.09039880542761959,0.08639511253923943,2.379012477364259
1763354781797374464,7.164374589920044,-0.048587821424007416,-0.01667647995054722,0.04439801350235939,0.08578537404537201,0.09075907617807388,-0.9921711683273315,0.010940082371234894,-0.00677470862865448,-0.0005350708961486816,0.37298218381657633,-0.05685522118884471,-0.02611305855105363,0.9257266520862634,-0.090884142062224,0.08624777838226712,2.379496422924219
1763354781807421440,7.174421548843384,-0.08775939047336578,-0.033617980778217316,0.04182939976453781,0.08553957939147949,0.09129086136817932,-0.9921436309814453,0.008774988353252411,-0.01969662308692932,0.009141921997070312,0.37275946365658935,-0.056834673773859035,-0.02641988475077016,0.9258089957060252,-0.09141814020742661,0.08600425402003273,2.3799841047451045
1763354781817467392,7.184467554092407,-0.11480778455734253,-0.023809824138879776,0.04293833673000336,0.08532000333070755,0.09178474545478821,-0.9921169281005859,0.002845272421836853,-0.026767052710056305,0.008749067783355713,0.37252407286989236,-0.05681871152734669,-0.02670496686653235,0.9258964798436016,-0.09191410882346124,0.08578686171535528,2.3804984550978565
1763354781827513344,7.194513559341431,-0.1357218325138092,-0.02152140438556671,0.04639902710914612,0.08514996618032455,0.09222632646560669,-0.99209064245224,-0.0012113675475120544,-0.02426367998123169,0.00431293249130249,0.37227426203039965,-0.056815429509147954,-0.02695735999972474,0.9259898822537812,-0.09235757389638787,0.08561898782149402,2.381044110422435
1763354781837560576,7.20456075668335,-0.12963278591632843,-0.02789062075316906,0.04916977882385254,0.08504470437765121,0.09292622655630112,-0.9920343160629272,0.0001298561692237854,-0.011169634759426117,0.007933974266052246,0.37200024673299015,-0.05689017282488419,-0.02731926415791015,0.9260848186014008,-0.09306049135330073,0.0855184931709278,2.3816500755185364
1763354781847606528,7.214606523513794,-0.10550260543823242,-0.031806595623493195,0.05040717124938965,0.08483810722827911,0.0938371792435646,-0.9919662475585938,0.0037849247455596924,0.0015149936079978943,0.005058348178863525,0.37172625980804985,-0.05695718352762267,-0.02779827405024255,0.9261764623039195,-0.09397543694936612,0.08531757894253311,2.382257812722329
1763354781857653504,7.224653720855713,-0.07993253320455551,-0.03196505457162857,0.053267672657966614,0.08469458669424057,0.09471467137336731,-0.9918951392173767,0.00456932932138443,0.01218840479850769,-0.002504885196685791,0.37144683740736956,-0.05704691181596651,-0.028250360609123684,0.9262692503745762,-0.09485685753628105,0.08518002209751648,2.382877786650794
1763354781867699712,7.234699726104736,-0.04108363762497902,-0.03567886725068092,0.06049478426575661,0.08461449295282364,0.09525248408317566,-0.9918504953384399,0.005244515836238861,0.02378132939338684,-0.0002454519271850586,0.37116201068125654,-0.057101952937420396,-0.028533012458694978,0.9263713985328107,-0.09539711412908938,0.08510367052363708,2.38350325345248
1763354781877745664,7.24474573135376,-0.01358729600906372,-0.036661576479673386,0.06761340796947479,0.08459294587373734,0.09519846737384796,-0.9918574690818787,0.0010546296834945679,0.02484241873025894,0.008031845092773438,0.37084630847345185,-0.05707202275610464,-0.028531347029934036,0.9264997740851083,-0.09534285398025517,0.08508150221713377,2.384182937962958
1763354781887792640,7.2547926902771,-0.010410144925117493,-0.04217458516359329,0.06250458210706711,0.08450157195329666,0.09475798159837723,-0.9919074773788452,0.0012070462107658386,0.016219191253185272,0.003137946128845215,0.3705135108864475,-0.05693646810568892,-0.02836385074577257,0.9266464259184625,-0.0949003658031579,0.0849857823541067,2.384887948529942
1763354781897838592,7.264838695526123,-0.0025623422116041183,-0.05110869184136391,0.053985126316547394,0.08420418947935104,0.09413455426692963,-0.9919921159744263,0.0038237646222114563,0.0068023353815078735,0.00029289722442626953,0.3702318110052592,-0.05667216498401548,-0.02814625796038655,0.9267818350800466,-0.09427414107256453,0.08468093335579642,2.3854717725688146
1763354781907884544,7.2748847007751465,-0.009745686315000057,-0.05904916673898697,0.05300881713628769,0.08370579779148102,0.09357770532369614,-0.9920869469642639,0.006855115294456482,0.0019423216581344604,0.002661287784576416,0.3699694450805613,-0.056327265599536346,-0.02799562505630211,0.926912110100797,-0.09371481650324187,0.08417408334128765,2.386009221386154
1763354781917931520,7.284931659698486,-0.0119547788053751,-0.061071306467056274,0.046658240258693695,0.08319969475269318,0.09338715672492981,-0.9921475052833557,0.007925793528556824,0.0043758973479270935,0.004339277744293213,0.36971895868724436,-0.05604780380028143,-0.02801601953104169,0.927028342747347,-0.09352343587906839,0.08366245143075561,2.3865296627120967
1763354781927977472,7.29497766494751,-0.02750723995268345,-0.053959738463163376,0.03585130721330643,0.08279532939195633,0.09358271211385727,-0.9921628832817078,0.0021656006574630737,0.005416303873062134,0.006323099136352539,0.369516490701164,-0.05588950444992001,-0.02819424716940531,0.927113326251746,-0.09371984805188355,0.08325642880008476,2.386958916336449
1763354781938023680,7.305023670196533,-0.061656154692173004,-0.04133369028568268,0.04412494972348213,0.08249106258153915,0.09425487369298935,-0.992124617099762,-0.005754612386226654,-0.0003065168857574463,0.010160505771636963,0.3693091243138117,-0.05586684312259647,-0.028576053189516403,0.9271855422833486,-0.09439499723580519,0.08295505878201519,2.3874123368147018
1763354781948070400,7.315070629119873,-0.09813091158866882,-0.018019745126366615,0.028459351509809494,0.08238905668258667,0.09561322629451752,-0.9920030832290649,-0.008795924484729767,-0.015260450541973114,0.014982879161834717,0.36910621961931256,-0.05606685315008844,-0.02923965412218741,0.9272335407213022,-0.09575950796702444,0.08286304926510044,2.387877987142185
1763354781958116608,7.3251166343688965,-0.10973963141441345,-0.014769356697797775,0.025081664323806763,0.0823693573474884,0.0971825122833252,-0.9918522238731384,-0.0103326216340065,-0.024977922439575195,0.009643971920013428,0.36895813564801616,-0.056346257211333135,-0.02998305655641619,0.9272518821645083,-0.09733613749131326,0.08285587379986724,2.388232577655458
1763354781968162560,7.33516263961792,-0.12232305854558945,-0.0012966920621693134,0.03524118289351463,0.08240680396556854,0.09863130003213882,-0.9917060732841492,-0.00892048329114914,-0.014707967638969421,0.014563798904418945,0.3687723362279729,-0.056628436248363785,-0.030662210298933554,0.9272863485935714,-0.09879192006468683,0.08290552266821825,2.3886669951007407
1763354781978209536,7.34520959854126,-0.08156631141901016,0.011746139265596867,0.036691538989543915,0.0826253592967987,0.099737249314785,-0.9915772676467896,-0.008467651903629303,0.0015658438205718994,0.013702571392059326,0.36857087754789425,-0.056930431396699836,-0.031149287317050425,0.9273318088121416,-0.09990334898681001,0.08313514073557347,2.389133677762595
1763354781988255488,7.355255603790283,-0.0537092499434948,-0.00440366892144084,0.050717875361442566,0.0828927606344223,0.10028652846813202,-0.9914996027946472,-0.0027383416891098022,0.005166962742805481,0.0013720393180847168,0.36834458914652735,-0.057150298796854404,-0.031369674568577706,0.9274007505758952,-0.10045539493893388,0.08340945482062886,2.389642999585791
1763354781998302464,7.365302562713623,-0.03773241490125656,-0.016371915116906166,0.06043867766857147,0.0830170139670372,0.10065435618162155,-0.9914519190788269,0.004156440496444702,0.010811097919940948,0.011318862438201904,0.3680585397529371,-0.057267304056250086,-0.031535752914390175,0.9275015030389172,-0.1008250965429743,0.0835379012530459,2.3902723841236293
1763354782008348416,7.3753485679626465,-0.031689900904893875,-0.021895110607147217,0.050793685019016266,0.08293613791465759,0.10091356188058853,-0.9914323091506958,0.005793720483779907,0.013069592416286469,-0.005485415458679199,0.36777477774690087,-0.05726819602051189,-0.03168898889627034,0.9276087418836274,-0.1010856283867114,0.08345853397517876,2.3908871511040837
1763354782018394368,7.38539457321167,-0.013987602666020393,-0.02594977617263794,0.034181684255599976,0.08263593167066574,0.10098232328891754,-0.9914503693580627,0.007589280605316162,0.014114715158939362,-0.01408851146697998,0.36757224202020256,-0.05713381050818702,-0.03178889264300567,0.9276937791586267,-0.10115474061180228,0.08315632341894269,2.391314767204743
1763354782028441344,7.39544153213501,0.008191170170903206,-0.04806889221072197,0.017836712300777435,0.08211883902549744,0.10056338459253311,-0.9915359020233154,0.008579395711421967,0.01746334135532379,-0.002970874309539795,0.3674428939412484,-0.05680969203880517,-0.03169690247234666,0.9277681427745788,-0.10073366351886741,0.08263125293340262,2.391566699672309
1763354782038487552,7.405487537384033,0.01891598477959633,-0.047743987292051315,0.0027674813754856586,0.08143232017755508,0.09977459907531738,-0.9916722178459167,0.007251761853694916,0.017260313034057617,0.010944068431854248,0.36738896738360255,-0.05634015817165529,-0.031459066888684425,0.9278262038132237,-0.09994088648571496,0.08193233834773794,2.391642138352697
1763354782048533504,7.415533542633057,0.007935205474495888,-0.037352029234170914,-0.0016870996914803982,0.08086095750331879,0.09928452223539352,-0.9917681813240051,-0.0006607621908187866,0.014546051621437073,0.007362663745880127,0.36739937035290343,-0.0559822828142306,-0.03133530814991309,0.9278480346630883,-0.09944836170010679,0.08135217209627522,2.3915898288674122
1763354782058580736,7.425580739974976,-0.018117433413863182,-0.026776088401675224,0.003112182952463627,0.08039099723100662,0.09945239871740341,-0.9917895197868347,-0.004600599408149719,0.003956407308578491,0.007216215133666992,0.367380076463296,-0.055793306781780745,-0.031501311421607406,0.9278613241238606,-0.09961707330264205,0.08087968365091382,2.3916187365645802
1763354782068626688,7.435626745223999,-0.03821704164147377,-0.030241722241044044,-0.0032295139972120523,0.08010996878147125,0.0998622328042984,-0.9917711019515991,-0.0044568926095962524,-0.0218745619058609,0.014293074607849121,0.36738017611670565,-0.05573830802557149,-0.03174410454316141,0.9278562996994201,-0.10002896167794309,0.08059966904007963,2.39161749211628
1763354782078672640,7.4456727504730225,-0.04561823233962059,-0.029804164543747902,-0.0021085895132273436,0.07997927814722061,0.10059624910354614,-0.991707444190979,-0.0062488168478012085,-0.03310663253068924,0.01636570692062378,0.3673718008788124,-0.05581361871316243,-0.03211081202037425,0.9278424867634317,-0.10076669363899722,0.08047388746336713,2.391646396750482
1763354782088719616,7.455719709396362,-0.05515917390584946,-0.032845597714185715,0.012970050796866417,0.07986944168806076,0.10139237344264984,-0.991635262966156,-0.0029498860239982605,-0.017148591578006744,0.006161630153656006,0.367328854298537,-0.05590903155326067,-0.03250472324045807,0.9278401130439757,-0.10156690774129748,0.08036967075852319,2.391751771150479
1763354782098765568,7.465765714645386,-0.03587149456143379,-0.02619781345129013,0.027060838416218758,0.07978527247905731,0.10213149338960648,-0.9915661811828613,0.000140264630317688,0.002284400165081024,0.004246234893798828,0.36720728323469315,-0.05600303376919081,-0.03287210389835058,0.9278695791502474,-0.10230988572484911,0.0802909082522779,2.392025915490766
1763354782108811520,7.475811719894409,-0.022458752617239952,-0.019112473353743553,0.033372439444065094,0.07984426617622375,0.10272587090730667,-0.9915000200271606,0.0002796351909637451,0.006099812686443329,-0.0010231733322143555,0.36705634583846775,-0.056135871920536,-0.03314745992004306,0.9279114711853182,-0.10290740693582183,0.08035536189956818,2.392365485252104
1763354782118858496,7.485858678817749,-0.010128316469490528,-0.011241234838962555,0.03308801352977753,0.07993300259113312,0.10320580005645752,-0.9914430379867554,-0.005653217434883118,0.010792620480060577,0.001208662986755371,0.36688716344355543,-0.05626058043246095,-0.033365136381927084,0.9279630540201641,-0.10338989603219409,0.08044888111558286,2.3927431639097043
1763354782128904704,7.4959046840667725,-0.022463113069534302,-0.02041279524564743,0.04150688648223877,0.07983903586864471,0.10358747839927673,-0.9914107918739319,-0.0024159476161003113,0.014820724725723267,-0.0014480948448181152,0.3667096365005133,-0.05628125406598476,-0.03357116087153532,0.9280245728278836,-0.1037736364533546,0.08035732040726067,2.3931301591182725
1763354782138951424,7.505951642990112,-0.04332791641354561,-0.016398079693317413,0.034567490220069885,0.07961247116327286,0.10390183329582214,-0.9913961291313171,0.0031512007117271423,0.0021467506885528564,0.0009023547172546387,0.3665101166811966,-0.05622656108077665,-0.033771505992390406,0.9280993289540705,-0.10408969203005347,0.08013143995784945,2.3935579619180563
1763354782148997632,7.515997648239136,-0.05973515287041664,-0.018085427582263947,0.011370467022061348,0.0793946236371994,0.10385619103908539,-0.9914183616638184,0.002300933003425598,-0.011983022093772888,-0.0026917457580566406,0.3663881119878098,-0.05611180103909112,-0.033797639377108404,0.9281535112356439,-0.10404380174226464,0.07991132118825997,2.393811990068338
1763354782159043584,7.526043653488159,-0.06385266035795212,-0.016667824238538742,0.012876218184828758,0.07913229614496231,0.10366042703390121,-0.991459846496582,-0.0026857703924179077,-0.005409084260463715,0.009892463684082031,0.36631470775846264,-0.05595012579298923,-0.03375896612521631,0.9281937238894387,-0.10384697931894035,0.07964509027439244,2.393956773574737
1763354782169090560,7.536090612411499,-0.06362806260585785,-0.010549312457442284,0.018982136622071266,0.0789768323302269,0.103861004114151,-0.9914512634277344,-0.0018283873796463013,0.005559772253036499,0.008602142333984375,0.36621006029399894,-0.05591089287204236,-0.03388737971083634,0.9282326044562477,-0.10404864327423945,0.07948995712444623,2.3941803251008715
1763354782179136512,7.5461366176605225,-0.03776184096932411,-0.006201968993991613,0.015848929062485695,0.07893923670053482,0.10439387708902359,-0.991398274898529,-0.0045678988099098206,0.00343998521566391,0.013309895992279053,0.36610667975394273,-0.05598848039042282,-0.03414906379154613,0.9282591500768018,-0.10458442664775425,0.07945650841597154,2.3944122514375366
1763354782189182464,7.556182622909546,-0.020584452897310257,-0.014261757954955101,0.019027678295969963,0.07889088243246078,0.10475809872150421,-0.9913637042045593,-0.005129896104335785,0.0023586004972457886,0.006241023540496826,0.3660173960145682,-0.05603019949390937,-0.03433322795082939,0.9282850856229187,-0.10495066190215156,0.07941079539781846,2.3946100375750334
1763354782199229440,7.566229581832886,0.004556586500257254,-0.02599511295557022,0.036361392587423325,0.07859891653060913,0.1050468236207962,-0.9913563132286072,0.002074293792247772,0.0159248486161232,-0.002128124237060547,0.3658865230302798,-0.055942435264262055,-0.034529391626234196,0.928334576038188,-0.10524098395043804,0.07911871961219867,2.394886461618691
1763354782209275392,7.576275587081909,0.02013944275677204,-0.0292493999004364,0.04639299213886261,0.07832688093185425,0.10517089068889618,-0.9913647174835205,0.005550682544708252,0.018562637269496918,0.0012676715850830078,0.36568695409778124,-0.05583081626313025,-0.034649187502027314,0.9284155037312172,-0.10536574050720242,0.07884535582995257,2.3953086447619016
1763354782219321600,7.586321592330933,0.014018166810274124,-0.023622136563062668,0.03695208579301834,0.07821430265903473,0.10495848953723907,-0.9913961291313171,0.000734671950340271,0.008856818079948425,0.007112681865692139,0.3654830755600803,-0.055731182795102,-0.03458297566582919,0.9285042922276654,-0.10515216127624995,0.07873001656867241,2.3957396134654445
1763354782229368576,7.5963685512542725,-0.0007001268677413464,-0.030845362693071365,0.04095517098903656,0.07807352393865585,0.10459575057029724,-0.9914455413818359,-0.0015659481287002563,0.002246290445327759,0.0025386810302734375,0.36529291982020917,-0.05559106061277655,-0.03445091083831962,0.9285923667604725,-0.10478741007129018,0.07858499065579312,2.396136813032042
1763354782239414528,7.606414556503296,-0.024655260145664215,-0.026802152395248413,0.044059883803129196,0.07781118899583817,0.10455859452486038,-0.9914700984954834,-0.0012731030583381653,-0.008657105267047882,0.008483648300170898,0.36508328528562206,-0.05545370989241862,-0.03449414716738126,0.928681422880912,-0.10475005038313676,0.07832008739581489,2.3965777866478026
1763354782249461760,7.616461753845215,-0.06556528061628342,-0.013298992067575455,0.03991707041859627,0.0776420384645462,0.10508474707603455,-0.9914277195930481,-0.004247263073921204,-0.016736358404159546,0.011096298694610596,0.364869429089209,-0.05546401437414286,-0.03478342763092693,0.9287540637980205,-0.10527911853462502,0.07815385177542129,2.397041985627264
1763354782259507712,7.626507759094238,-0.09086424112319946,0.00553062092512846,0.030217569321393967,0.077609583735466,0.1059361919760704,-0.9913396239280701,-0.0088840052485466,-0.0193730890750885,0.012427330017089844,0.3646790505622282,-0.055599202500167505,-0.03519816122366352,0.9288051167762564,-0.10613534505485192,0.07812822793464809,2.3974667557816223
1763354782269553408,7.636553525924683,-0.10026516765356064,0.0050711920484900475,0.031242087483406067,0.07763347774744034,0.10689233243465424,-0.9912351369857788,-0.010494805872440338,-0.013615354895591736,0.005578398704528809,0.36452134918448004,-0.05578122129436896,-0.0356495802686336,0.9288389529139536,-0.10709694160866758,0.07816038890102427,2.3978252655157446
1763354782279600640,7.646600723266602,-0.13048352301120758,0.003821104299277067,0.03553350642323494,0.07778310030698776,0.10835093259811401,-0.9910650253295898,-0.0038542672991752625,-0.00044077634811401367,0.006842613220214844,0.3643250158575789,-0.05611335995333156,-0.03631504756146691,0.9288702250322006,-0.10856406752374424,0.0783237982740165,2.398280969879234
1763354782289646592,7.656646728515625,-0.1460125744342804,-0.0020185080356895924,0.037857379764318466,0.07798376679420471,0.11006925255060196,-0.990859866142273,0.0006752908229827881,0.0020218119025230408,0.004775881767272949,0.3641091884117985,-0.0565164363277367,-0.03709385964567778,0.9288996557903749,-0.11029272752694914,0.07854122334042006,2.3987852590692285
1763354782299692544,7.666692733764648,-0.17279119789600372,0.0009613023139536381,0.043270789086818695,0.0780508890748024,0.11171320825815201,-0.9906705617904663,-0.00042944401502609253,-0.018298909068107605,0.006173551082611084,0.363869416036586,-0.05684205627358245,-0.03786403681480163,0.9289426476223,-0.11194688407335543,0.07862350721803972,2.3993340153134595
1763354782309739520,7.676739692687988,-0.16650667786598206,0.013683488592505455,0.025594498962163925,0.07812366634607315,0.11329761892557144,-0.990484893321991,-0.0028368011116981506,-0.02357593923807144,0.005316436290740967,0.3636571672222618,-0.05716017951051118,-0.03860391436870304,0.9289757715116391,-0.11354141909596795,0.0787112042956284,2.3998223216303805
1763354782319785472,7.686785697937012,-0.12446308135986328,0.02586159110069275,0.029144493862986565,0.07834278047084808,0.11440158635377884,-0.9903407096862793,-0.006733275949954987,-0.005148656666278839,0.006606578826904297,0.3634932077407222,-0.05745987579343731,-0.03908985623527904,0.9290010656865055,-0.11465260926982154,0.07894249758205067,2.400204012673612
1763354782329831680,7.696831703186035,-0.0767960250377655,0.039841391146183014,0.05087278038263321,0.07863246649503708,0.11478493362665176,-0.9902733564376831,-0.009220242500305176,0.01746298372745514,0.00804990530014038,0.36328370948660726,-0.057657490768872284,-0.03922916545567911,0.9290648894188804,-0.11503850078192183,0.07923855085643237,2.4006741386225587
1763354782339878656,7.706878662109375,-0.05278177186846733,0.039138585329055786,0.06560485810041428,0.07890351861715317,0.11474686861038208,-0.9902562499046326,-0.004715286195278168,0.03050154447555542,0.0033025145530700684,0.36299939008669424,-0.05776539718964013,-0.03917967051158443,0.9291714118060296,-0.11500018021932351,0.07951191461637672,2.401297050261938
1763354782349924608,7.716924667358398,-0.06825227290391922,0.023809093981981277,0.05521337687969208,0.0790320336818695,0.11481737345457077,-0.990237832069397,0.00306025892496109,0.025075197219848633,0.0011173486709594727,0.36271089946247204,-0.05782642430601754,-0.039207180638297985,0.9292790929491341,-0.11507115717213548,0.07964234678878752,2.401924688698563
1763354782359970560,7.726970672607422,-0.0929589495062828,0.021252725273370743,0.04143471270799637,0.07919638603925705,0.11542703211307526,-0.9901537895202637,0.0018583014607429504,-0.0028171688318252563,0.012828350067138672,0.36246613526427457,-0.05800542655439413,-0.03947752248140873,0.9293519970668508,-0.11568489675294681,0.07981401434213954,2.4024694827081103
1763354782370017536,7.737017631530762,-0.12092886120080948,0.02453407272696495,0.026714801788330078,0.07945913076400757,0.11641441285610199,-0.9900171160697937,-0.0004949048161506653,-0.028066031634807587,0.012081384658813477,0.36228611058173976,-0.05830275671970933,-0.03990263465810957,0.9293854784512989,-0.11667898049501829,0.0800886831221498,2.402886107151662
1763354782380063488,7.747063636779785,-0.11398573964834213,0.02056196704506874,0.019039306789636612,0.07968726754188538,0.11707106977701187,-0.9899213910102844,-0.001150280237197876,-0.02110854536294937,0.002616703510284424,0.36215766233408353,-0.058525077951069385,-0.04017628244818726,0.9294098155545818,-0.11734015853293885,0.08032537812420287,2.4031843432463638
1763354782390110464,7.757110595703125,-0.07100148499011993,0.013107746839523315,0.008651558309793472,0.07974966615438461,0.11738766729831696,-0.9898788332939148,0.00463142991065979,0.009504422545433044,-0.002415478229522705,0.36206864548946727,-0.058608774124810525,-0.040318593459281744,0.9294330797332383,-0.11765895119654941,0.08039144839308543,2.4033843612092487
1763354782400156416,7.767156600952148,-0.039604417979717255,0.003984822425991297,0.014435144141316414,0.07968488335609436,0.11775755137205124,-0.9898401498794556,0.00608476996421814,0.03609681874513626,-0.0012944936752319336,0.3620101190893641,-0.05864399724541012,-0.04050701156580957,0.9294453647705346,-0.11803141573865579,0.0803295530589051,2.403513896613663
1763354782410202624,7.777202606201172,-0.0105720991268754,0.01063753105700016,0.017350951209664345,0.07962097972631454,0.1182478815317154,-0.9897868037223816,0.004821158945560455,0.04113017022609711,0.004023253917694092,0.3619329956711361,-0.058700970442118944,-0.0407527807061933,0.9294610605743672,-0.1185251982481715,0.08026971114457847,2.403685773839797
1763354782420249344,7.787249565124512,-0.002926429733633995,0.012012521736323833,0.00922538060694933,0.0796489343047142,0.11876515299081802,-0.9897226095199585,0.0014820396900177002,0.018869109451770782,0.0052561163902282715,0.3618689845129021,-0.05880650190942492,-0.0409936645099346,0.9294687232823077,-0.1190461437865409,0.08030295949216734,2.403833934806625
1763354782430296320,7.797296524047852,-0.024594107642769814,0.01588735543191433,0.007218955084681511,0.07982923835515976,0.11927779763936996,-0.9896464347839355,-0.0016126930713653564,0.0005036890506744385,0.0029521584510803223,0.36184709565387685,-0.05898442890979877,-0.04120208447034496,0.929456726311524,-0.11956245529072122,0.08049012767229156,2.4038981087027356
1763354782440342528,7.807342529296875,-0.04118506610393524,0.024747159332036972,0.005494558252394199,0.08009591698646545,0.11949662119150162,-0.9895985126495361,-0.002733856439590454,-0.004170693457126617,0.005360841751098633,0.3618009947074213,-0.0591476615126241,-0.041258959099505624,0.9294618002022704,-0.11978285228143863,0.08076174534534428,2.4040131938035416
1763354782450389504,7.817389488220215,-0.061869509518146515,0.027299199253320694,0.00247923843562603,0.08036394417285919,0.11939364671707153,-0.9895892143249512,-0.003261283040046692,-0.008599579334259033,0.007274150848388672,0.361765820649597,-0.05925276107783175,-0.04116439886955759,0.9294730492389881,-0.11967913757835472,0.08103157702880856,2.4040991646067136
1763354782460435456,7.827435493469238,-0.09596142917871475,0.029275264590978622,0.001599862240254879,0.08061011880636215,0.11967864632606506,-0.9895347356796265,-0.003446429967880249,-0.00670257955789566,0.00836414098739624,0.3617328934325169,-0.0594191573110035,-0.04125513267878638,0.9294712313734028,-0.11996619501724724,0.08128315842410185,2.404186200706604
1763354782470481408,7.837481498718262,-0.12301242351531982,0.044346295297145844,-0.004472233355045319,0.08104155212640762,0.12092719227075577,-0.9893476963043213,-0.005052782595157623,-0.011002875864505768,0.015257120132446289,0.36169898154065533,-0.05984977660500984,-0.04176303937792767,0.9294341096269907,-0.12122387714361281,0.0817316449880209,2.404301157993163
1763354782480528384,7.847528457641602,-0.16484108567237854,0.06789955496788025,0.003920719027519226,0.08171964436769485,0.12309806048870087,-0.9890241622924805,-0.013085611164569855,-0.02051321417093277,0.02140331268310547,0.36167629679248764,-0.060566523699020276,-0.042657019735836715,0.9293558874281692,-0.12341108293759852,0.08243927348413886,2.4044202016501854
1763354782490574336,7.857574462890625,-0.2160957306623459,0.08316875249147415,0.014642249792814255,0.08255564421415329,0.12583023309707642,-0.9886108040809631,-0.016393527388572693,-0.025732576847076416,0.020425379276275635,0.36159180772346844,-0.06145812423671106,-0.04378924798404627,0.9292775338615298,-0.1261646758600279,0.08331341648753404,2.40469040615472
1763354782500621312,7.867621421813965,-0.2755742371082306,0.07737051695585251,0.015967439860105515,0.08337970823049545,0.1285114884376526,-0.9881966710090637,-0.011922799050807953,-0.03409011662006378,0.01402980089187622,0.3614747993464667,-0.0623334065670519,-0.04490235697822919,0.9292116220028008,-0.1288678824696418,0.08417624644959379,2.4050300799473554
1763354782510667264,7.877667427062988,-0.3012242913246155,0.06291308999061584,0.020016510039567947,0.08396543562412262,0.13120560348033905,-0.98779296875,-0.0030633360147476196,-0.03592972457408905,0.009735107421875,0.361318667904986,-0.06309745771856243,-0.046067784609342646,0.9291637201456994,-0.13158500228671396,0.08479922604004561,2.4054431716487437
1763354782520713216,7.887713432312012,-0.28536728024482727,0.047510694712400436,0.024135088548064232,0.08440875262022018,0.13375979661941528,-0.9874125123023987,0.004336372017860413,-0.03263980150222778,0.007645666599273682,0.3611331407148596,-0.06376738865408164,-0.047195996450797736,0.9291334558482653,-0.13416190385336624,0.08527746725418651,2.4059100395107547
1763354782530760192,7.897760391235352,-0.23779523372650146,0.038480717688798904,0.03403734415769577,0.08472777158021927,0.13583755493164062,-0.9871014952659607,0.006702892482280731,-0.009983077645301819,0.0020398497581481934,0.36092965086065465,-0.06429004017012054,-0.0481252933407839,0.9291288645844156,-0.13625881128922765,0.08562504254144651,2.406400929739452
1763354782540806400,7.907806396484375,-0.1955186128616333,0.022007465362548828,0.05664864555001259,0.0849347934126854,0.13746842741966248,-0.9868578910827637,0.006953626871109009,0.025419145822525024,-0.0010724067687988281,0.36065383491995123,-0.06467367925066687,-0.04887090625836124,0.9291705381147807,-0.1379051271996821,0.08585431484946034,2.4070339685728537
1763354782550852352,7.917852401733398,-0.16265857219696045,0.008042015135288239,0.06678437441587448,0.08506830781698227,0.1388217657804489,-0.986656904220581,0.010360151529312134,0.04219323396682739,-0.01004713773727417,0.3603177324347985,-0.06496812925825456,-0.049504299848922934,0.9292468468638542,-0.13927156238926644,0.0860060339975506,2.4077876950745014
1763354782560899328,7.927899360656738,-0.16013309359550476,0.005775664933025837,0.06394784152507782,0.08502141386270523,0.1399371176958084,-0.9865034222602844,0.01045282930135727,0.02801637351512909,-0.002662837505340576,0.35996004450589775,-0.06513249279914383,-0.0500605353794631,0.9293441154435087,-0.14039790749680442,0.08597217074647245,2.4085737753375924
1763354782570945280,7.937945365905762,-0.18524816632270813,0.0004303012974560261,0.045109257102012634,0.08489800989627838,0.14108042418956757,-0.9863511919975281,0.005586609244346619,0.002169087529182434,0.004783809185028076,0.35965657192909944,-0.06526865840563412,-0.05064005462930242,0.9294205897180662,-0.14155266823617274,0.08586118808107529,2.4092390747318797
1763354782580991232,7.947991371154785,-0.22303682565689087,0.008092215284705162,0.036327216774225235,0.08481983095407486,0.14241637289524078,-0.9861658811569214,-0.0012627020478248596,-0.010733023285865784,0.010595202445983887,0.35940788303118537,-0.06546422108785421,-0.05129803140526157,0.9294669791881125,-0.14290223940448052,0.08579854308151266,2.4097919531059775
